"trial_type","trial_index","time_elapsed","internal_node_id","rt","responses","stimulus","key_press","block","type","counter","reward","side","card","mean","sigma","choseDeck","offer","reward_on_choice","age","gender"
"pavlovia",0,2,"0.0-0.0","","","","","","","","","","","","","","","",19,1
"survey-text",1,2635,"0.0-1.0","2626.5","{""""Start"""":""""""""}","","","","","","","","","","","","","",19,1
"html-keyboard-response",2,3980,"0.0-2.0-0.0","1341.7000000476837","","<div style='position: fixed; font-size: 18pt; padding: 10px; background-color: white; line-height: 1.5; top: 0; left: 50%; transform: translate(-50%, 0); width: 80%; max-width: 1250px; border-style: solid; border-color: red'>Welcome to the experiment!<br><br>[press any key to continue]</div>","32","","","","","","","","","","","",19,1
"html-keyboard-response",3,10638,"0.0-2.0-1.0","6657.799999952316","","<div style='position: fixed; font-size: 18pt; padding: 10px; background-color: white; line-height: 1.5; top: 0; left: 50%; transform: translate(-50%, 0); width: 80%; max-width: 1250px; border-style: solid; border-color: red'>In this experiment you will make decisions about whether to draw a card to get a variable payout or take a sure-thing payout.<br><br>[press any key to continue]</div>","32","","","","","","","","","","","",19,1
"html-keyboard-response",4,18218,"0.0-2.0-2.0","7579","","<div style='position: fixed; font-size: 18pt; padding: 10px; background-color: white; line-height: 1.5; top: 0; left: 50%; transform: translate(-50%, 0); width: 80%; max-width: 1250px; border-style: solid; border-color: red'>Here is what your choice might look like. On the left is a deck of cards that has variable payouts and on the right a sure-thing offer of 100 points.<br><br>[press any key to continue]</div><div style='float: left; border-style: solid; border-width: 2px; border-color: white; height: 250px; width: 179px;background-image: url(./img/card1.png); height: 250px; width: 179px;')></div><div style='float: left; height: 250px; width: 200px;')></div><div style='float: left; display: flex; justify-content: center; align-items: center; height: 250px; width: 179px; border-style: solid; border-width: 2px; border-color: white; font-size:60px; color:grey; background-color: lightgrey;'')>+100</div>","32","","","","","","","","","","","",19,1
"html-keyboard-response",5,28556,"0.0-2.0-3.0","10335.899999976158","","<div style='position: fixed; font-size: 18pt; padding: 10px; background-color: white; line-height: 1.5; top: 0; left: 50%; transform: translate(-50%, 0); width: 80%; max-width: 1250px; border-style: solid; border-color: red'>You will press the 'F' key to choose the left-side option (deck). <br>You will press the 'J' key to choose the right-side option (sure-thing offer).<br><br>[press any key to continue]</div><div style='float: left; border-style: solid; border-width: 2px; border-color: white; height: 250px; width: 179px;background-image: url(./img/card1.png); height: 250px; width: 179px;')></div><div style='float: left; height: 250px; width: 200px;')></div><div style='float: left; display: flex; justify-content: center; align-items: center; height: 250px; width: 179px; border-style: solid; border-width: 2px; border-color: white; font-size:60px; color:grey; background-color: lightgrey;'')>+100</div>","32","","","","","","","","","","","",19,1
"html-keyboard-response",6,33553,"0.0-2.0-4.0","4994.600000023842","","<div style='position: fixed; font-size: 18pt; padding: 10px; background-color: white; line-height: 1.5; top: 0; left: 50%; transform: translate(-50%, 0); width: 80%; max-width: 1250px; border-style: solid; border-color: red'>If you choose the deck, you will get that card's hidden offer. <br><br>The offer could be a positive or negative.  <br><br>[press any key to continue]</div><div style='float: left; border-style: solid; border-width: 2px; border-color: white; height: 250px; width: 179px;background-image: url(./img/card1.png); height: 250px; width: 179px;')></div><div style='float: left; height: 250px; width: 200px;')></div><div style='float: left; display: flex; justify-content: center; align-items: center; height: 250px; width: 179px; border-style: solid; border-width: 2px; border-color: white; font-size:60px; color:grey; background-color: lightgrey;'')>+100</div>","32","","","","","","","","","","","",19,1
"html-keyboard-response",7,36004,"0.0-2.0-5.0","2449.7999999523163","","<div style='position: fixed; font-size: 18pt; padding: 10px; background-color: white; line-height: 1.5; top: 0; left: 50%; transform: translate(-50%, 0); width: 80%; max-width: 1250px; border-style: solid; border-color: red'>In this case the hidden card was worth +200 points, so the variable deck was a better than the sure-thing. <br><br>[press any key to continue]</div><div style='float: left; display: flex; justify-content: center; align-items: center; height: 250px; width: 179px; border-style: solid; border-width: 2px; border-color: black; font-size:60px;'')>+200</div><div style='float: left; height: 250px; width: 200px;')></div><div style='float: left; display: flex; justify-content: center; align-items: center; height: 250px; width: 179px; border-style: solid; border-width: 2px; border-color: white; font-size:60px; color:grey; background-color: lightgrey;'')>+100</div>","32","","","","","","","","","","","",19,1
"html-keyboard-response",8,37016,"0.0-2.0-6.0","1011.2000000476837","","<div style='position: fixed; font-size: 18pt; padding: 10px; background-color: white; line-height: 1.5; top: 0; left: 50%; transform: translate(-50%, 0); width: 80%; max-width: 1250px; border-style: solid; border-color: red'>On this trial, the hidden card was worth -150 points, so the sure-thing was better than the variable deck.<br><br>[press any key to continue]</div><div style='float: left; display: flex; justify-content: center; align-items: center; height: 250px; width: 179px; border-style: solid; border-width: 2px; border-color: black; font-size:60px;'')>-150</div><div style='float: left; height: 250px; width: 200px;')></div><div style='float: left; display: flex; justify-content: center; align-items: center; height: 250px; width: 179px; border-style: solid; border-width: 2px; border-color: white; font-size:60px; color:grey; background-color: lightgrey;'')>+100</div>","32","","","","","","","","","","","",19,1
"html-keyboard-response",9,38274,"0.0-2.0-7.0","1255.7999999523163","","<div style='position: fixed; font-size: 18pt; padding: 10px; background-color: white; line-height: 1.5; top: 0; left: 50%; transform: translate(-50%, 0); width: 80%; max-width: 1250px; border-style: solid; border-color: red'>Every decision involves a different deck of cards with variable payouts. <br>Some decks are better on average and some decks are worse on average. <br><br>[press any key to continue]</div>","32","","","","","","","","","","","",19,1
"html-keyboard-response",10,45551,"0.0-2.0-8.0","7276.699999928474","","<div style='position: fixed; font-size: 18pt; padding: 10px; background-color: white; line-height: 1.5; top: 0; left: 50%; transform: translate(-50%, 0); width: 80%; max-width: 1250px; border-style: solid; border-color: red'>To give you a sense of whether the deck is good or bad, you will be shown 5 cards from each deck before you are asked to choose between the variable deck option and the sure-thing option. <br><br>To see these example cards you will press the SPACE BAR.<br><br>[press any key to continue]</div>","32","","","","","","","","","","","",19,1
"html-keyboard-response",11,50465,"0.0-2.0-9.0","4911.899999976158","","<div style='position: fixed; font-size: 18pt; padding: 10px; background-color: white; line-height: 1.5; top: 0; left: 50%; transform: translate(-50%, 0); width: 80%; max-width: 1250px; border-style: solid; border-color: red'>To help you keep track of how well you are doing, your score will be shown at the bottom of the screen.  <br><br>You will start from 1000 points and can both gain and lose points. <br><br>Note that you will only gain or lose points when you choose between the two options.<br><br>[press any key to continue]</div>","32","","","","","","","","","","","",19,1
"html-keyboard-response",12,59579,"0.0-2.0-10.0","9113.300000071526","","<div style='position: fixed; font-size: 18pt; padding: 10px; background-color: white; line-height: 1.5; top: 0; left: 50%; transform: translate(-50%, 0); width: 80%; max-width: 1250px; border-style: solid; border-color: red'>In the experiment you will make decisions about 180 different decks. This should take about 20-30 minutes to complete. <br><br>When you are ready to begin we will try a few example games to make sure that everything makes sense.<br><br>[press any key to continue]</div>","32","","","","","","","","","","","",19,1
"html-keyboard-response",13,67767,"0.0-3.0-0.0-0.0","8185","","<div style='float: left; border-style: solid; border-width: 2px; border-color: white; height: 250px; width: 179px;background-image: url(./img/card1.png); height: 250px; width: 179px;')></div><div style='position: fixed; font-size: 18pt; padding: 10px; background-color: white; line-height: 1.5; top: 0; left: 50%; transform: translate(-50%, 0); width: 80%; max-width: 1250px; border-style: solid; border-color: red'>The words """"New Deck"""" will appear each time there is a new deck with a different average payoff. The task automatically moves on after 1 second.  <br><br>For this practice game, press SPACE BAR to continue.</div><div style='position: fixed; bottom: 0;  left: 0%; width:100%; text-align: right'>Draw number: 0 of 5&nbsp<br>Deck number: 1 of 4&nbsp</div><div style='position: fixed; bottom: 50px; left: 0%; width:100%; font-size: 24pt'>Score: 1000</div>","32",1,"NewDeck",1,"","","","","","","","",19,1
"html-keyboard-response",14,70577,"0.0-3.0-0.0-1.0","2807.3000000715256","","<div style='float: left; height: 250px; width: 200px;')></div><div style='float: left; border-style: solid; border-width: 2px; border-color: white; height: 250px; width: 179px;background-image: url(./img/card1.png); height: 250px; width: 179px;')></div><div style='float: left; height: 250px; width: 200px;')></div><div style='position: fixed; font-size: 18pt; padding: 10px; background-color: white; line-height: 1.5; top: 0; left: 50%; transform: translate(-50%, 0); width: 80%; max-width: 1250px; border-style: solid; border-color: red'>Press SPACE BAR to draw one card from the deck ...</div><div style='position: fixed; bottom: 0;  left: 0%; width:100%; text-align: right'>Draw number: 0 of 5&nbsp<br>Deck number: 1 of 4&nbsp</div><div style='position: fixed; bottom: 50px; left: 0%; width:100%; font-size: 24pt'>Score: 1000</div>","32",1,"forced_down",1,-100,-1,"","","","","","",19,1
"html-keyboard-response",15,95181,"0.0-3.0-0.0-2.0","24601.400000095367","","<div style='float: left; height: 250px; width: 200px;')></div><div style='float: left;z-index: 1; display: flex; justify-content: center; align-items: center; height: 250px; width: 179px; border-style: solid; border-style: solid; border-width: 2px; border-color: white; font-size:60px;'><div style='position: absolute; z-index: -1; background-image: url(./img/card2.png); height: 250px; width: 179px; opacity: 0.9;'></div>+100</div><div style='float: left; height: 250px; width: 200px;')></div><div style='position: fixed; bottom: 0;  left: 0%; width:100%; text-align: right'>Draw number: 1 of 5&nbsp<br>Deck number: 1 of 4&nbsp</div><div style='position: fixed; bottom: 50px; left: 0%; width:100%; font-size: 24pt'>Score: 1000</div><div style='position: fixed; font-size: 18pt; padding: 10px; background-color: white; line-height: 1.5; top: 0; left: 50%; transform: translate(-50%, 0); width: 80%; max-width: 1250px; border-style: solid; border-color: red'>This shows the payout from one draw from the deck.<br>Note that this example draw does not contribute to your score.<br><br>  In the experiment this payout disappears after 1 second. During these practice trials press SPACE BAR to move on.</div>","32",1,"forced_outcome",1,100,-1,"./img/card1.png","","","","","",19,1
"html-keyboard-response",16,96244,"0.0-3.0-0.0-3.0","1060.8999999761581","","<div style='float: left; height: 250px; width: 200px;')></div><div style='float: left; border-style: solid; border-width: 2px; border-color: white; height: 250px; width: 179px;background-image: url(./img/card1.png); height: 250px; width: 179px;')></div><div style='float: left; height: 250px; width: 200px;')></div><div style='position: fixed; font-size: 18pt; padding: 10px; background-color: white; line-height: 1.5; top: 0; left: 50%; transform: translate(-50%, 0); width: 80%; max-width: 1250px; border-style: solid; border-color: red'>Press SPACE BAR to draw one card from the deck ...</div><div style='position: fixed; bottom: 0;  left: 0%; width:100%; text-align: right'>Draw number: 1 of 5&nbsp<br>Deck number: 1 of 4&nbsp</div><div style='position: fixed; bottom: 50px; left: 0%; width:100%; font-size: 24pt'>Score: 1000</div>","32",1,"forced_down",1,-100,-1,"","","","","","",19,1
"html-keyboard-response",17,98105,"0.0-3.0-0.0-4.0","1858.6000000238419","","<div style='float: left; height: 250px; width: 200px;')></div><div style='float: left;z-index: 1; display: flex; justify-content: center; align-items: center; height: 250px; width: 179px; border-style: solid; border-style: solid; border-width: 2px; border-color: white; font-size:60px;'><div style='position: absolute; z-index: -1; background-image: url(./img/card2.png); height: 250px; width: 179px; opacity: 0.9;'></div>+70</div><div style='float: left; height: 250px; width: 200px;')></div><div style='position: fixed; bottom: 0;  left: 0%; width:100%; text-align: right'>Draw number: 2 of 5&nbsp<br>Deck number: 1 of 4&nbsp</div><div style='position: fixed; bottom: 50px; left: 0%; width:100%; font-size: 24pt'>Score: 1000</div><div style='position: fixed; font-size: 18pt; padding: 10px; background-color: white; line-height: 1.5; top: 0; left: 50%; transform: translate(-50%, 0); width: 80%; max-width: 1250px; border-style: solid; border-color: red'>This shows the payout from one draw from the deck.<br>Note that this example draw does not contribute to your score.<br><br>  In the experiment this payout disappears after 1 second. During these practice trials press SPACE BAR to move on.</div>","32",1,"forced_outcome",1,70,-1,"./img/card1.png","","","","","",19,1
"html-keyboard-response",18,99106,"0.0-3.0-0.0-5.0","999.5","","<div style='float: left; height: 250px; width: 200px;')></div><div style='float: left; border-style: solid; border-width: 2px; border-color: white; height: 250px; width: 179px;background-image: url(./img/card1.png); height: 250px; width: 179px;')></div><div style='float: left; height: 250px; width: 200px;')></div><div style='position: fixed; font-size: 18pt; padding: 10px; background-color: white; line-height: 1.5; top: 0; left: 50%; transform: translate(-50%, 0); width: 80%; max-width: 1250px; border-style: solid; border-color: red'>Press SPACE BAR to draw one card from the deck ...</div><div style='position: fixed; bottom: 0;  left: 0%; width:100%; text-align: right'>Draw number: 2 of 5&nbsp<br>Deck number: 1 of 4&nbsp</div><div style='position: fixed; bottom: 50px; left: 0%; width:100%; font-size: 24pt'>Score: 1000</div>","32",1,"forced_down",1,-100,-1,"","","","","","",19,1
"html-keyboard-response",19,100664,"0.0-3.0-0.0-6.0","1555.7000000476837","","<div style='float: left; height: 250px; width: 200px;')></div><div style='float: left;z-index: 1; display: flex; justify-content: center; align-items: center; height: 250px; width: 179px; border-style: solid; border-style: solid; border-width: 2px; border-color: white; font-size:60px;'><div style='position: absolute; z-index: -1; background-image: url(./img/card2.png); height: 250px; width: 179px; opacity: 0.9;'></div>+700</div><div style='float: left; height: 250px; width: 200px;')></div><div style='position: fixed; bottom: 0;  left: 0%; width:100%; text-align: right'>Draw number: 3 of 5&nbsp<br>Deck number: 1 of 4&nbsp</div><div style='position: fixed; bottom: 50px; left: 0%; width:100%; font-size: 24pt'>Score: 1000</div><div style='position: fixed; font-size: 18pt; padding: 10px; background-color: white; line-height: 1.5; top: 0; left: 50%; transform: translate(-50%, 0); width: 80%; max-width: 1250px; border-style: solid; border-color: red'>This shows the payout from one draw from the deck.<br>Note that this example draw does not contribute to your score.<br><br>  In the experiment this payout disappears after 1 second. During these practice trials press SPACE BAR to move on.</div>","32",1,"forced_outcome",1,700,-1,"./img/card1.png","","","","","",19,1
"html-keyboard-response",20,101793,"0.0-3.0-0.0-7.0","1127.5","","<div style='float: left; height: 250px; width: 200px;')></div><div style='float: left; border-style: solid; border-width: 2px; border-color: white; height: 250px; width: 179px;background-image: url(./img/card1.png); height: 250px; width: 179px;')></div><div style='float: left; height: 250px; width: 200px;')></div><div style='position: fixed; font-size: 18pt; padding: 10px; background-color: white; line-height: 1.5; top: 0; left: 50%; transform: translate(-50%, 0); width: 80%; max-width: 1250px; border-style: solid; border-color: red'>Press SPACE BAR to draw one card from the deck ...</div><div style='position: fixed; bottom: 0;  left: 0%; width:100%; text-align: right'>Draw number: 3 of 5&nbsp<br>Deck number: 1 of 4&nbsp</div><div style='position: fixed; bottom: 50px; left: 0%; width:100%; font-size: 24pt'>Score: 1000</div>","32",1,"forced_down",1,-100,-1,"","","","","","",19,1
"html-keyboard-response",21,104246,"0.0-3.0-0.0-8.0","2451","","<div style='float: left; height: 250px; width: 200px;')></div><div style='float: left;z-index: 1; display: flex; justify-content: center; align-items: center; height: 250px; width: 179px; border-style: solid; border-style: solid; border-width: 2px; border-color: white; font-size:60px;'><div style='position: absolute; z-index: -1; background-image: url(./img/card2.png); height: 250px; width: 179px; opacity: 0.9;'></div>+110</div><div style='float: left; height: 250px; width: 200px;')></div><div style='position: fixed; bottom: 0;  left: 0%; width:100%; text-align: right'>Draw number: 4 of 5&nbsp<br>Deck number: 1 of 4&nbsp</div><div style='position: fixed; bottom: 50px; left: 0%; width:100%; font-size: 24pt'>Score: 1000</div><div style='position: fixed; font-size: 18pt; padding: 10px; background-color: white; line-height: 1.5; top: 0; left: 50%; transform: translate(-50%, 0); width: 80%; max-width: 1250px; border-style: solid; border-color: red'>This shows the payout from one draw from the deck.<br>Note that this example draw does not contribute to your score.<br><br>  In the experiment this payout disappears after 1 second. During these practice trials press SPACE BAR to move on.</div>","32",1,"forced_outcome",1,110,-1,"./img/card1.png","","","","","",19,1
"html-keyboard-response",22,104977,"0.0-3.0-0.0-9.0","729.3999999761581","","<div style='float: left; height: 250px; width: 200px;')></div><div style='float: left; border-style: solid; border-width: 2px; border-color: white; height: 250px; width: 179px;background-image: url(./img/card1.png); height: 250px; width: 179px;')></div><div style='float: left; height: 250px; width: 200px;')></div><div style='position: fixed; font-size: 18pt; padding: 10px; background-color: white; line-height: 1.5; top: 0; left: 50%; transform: translate(-50%, 0); width: 80%; max-width: 1250px; border-style: solid; border-color: red'>Press SPACE BAR to draw one card from the deck ...</div><div style='position: fixed; bottom: 0;  left: 0%; width:100%; text-align: right'>Draw number: 4 of 5&nbsp<br>Deck number: 1 of 4&nbsp</div><div style='position: fixed; bottom: 50px; left: 0%; width:100%; font-size: 24pt'>Score: 1000</div>","32",1,"forced_down",1,-100,-1,"","","","","","",19,1
"html-keyboard-response",23,108403,"0.0-3.0-0.0-10.0","3423.5","","<div style='float: left; height: 250px; width: 200px;')></div><div style='float: left;z-index: 1; display: flex; justify-content: center; align-items: center; height: 250px; width: 179px; border-style: solid; border-style: solid; border-width: 2px; border-color: white; font-size:60px;'><div style='position: absolute; z-index: -1; background-image: url(./img/card2.png); height: 250px; width: 179px; opacity: 0.9;'></div>+90</div><div style='float: left; height: 250px; width: 200px;')></div><div style='position: fixed; bottom: 0;  left: 0%; width:100%; text-align: right'>Draw number: 5 of 5&nbsp<br>Deck number: 1 of 4&nbsp</div><div style='position: fixed; bottom: 50px; left: 0%; width:100%; font-size: 24pt'>Score: 1000</div><div style='position: fixed; font-size: 18pt; padding: 10px; background-color: white; line-height: 1.5; top: 0; left: 50%; transform: translate(-50%, 0); width: 80%; max-width: 1250px; border-style: solid; border-color: red'>This shows the payout from one draw from the deck.<br>Note that this example draw does not contribute to your score.<br><br>  In the experiment this payout disappears after 1 second. During these practice trials press SPACE BAR to move on.</div>","32",1,"forced_outcome",1,90,-1,"./img/card1.png","","","","","",19,1
"html-keyboard-response",24,119160,"0.0-3.0-0.0-11.0","10754.5","","<div style='float: left; display: flex; justify-content: center; align-items: center; height: 250px; width: 179px; border-style: solid; border-width: 2px; border-color: white; font-size:60px; color:grey; background-color: lightgrey;'')>+100</div><div style='float: left; height: 250px; width: 200px;')></div><div style='float: left; border-style: solid; border-width: 2px; border-color: white; height: 250px; width: 179px;background-image: url(./img/card1.png); height: 250px; width: 179px;')></div><div style='position: fixed; font-size: 18pt; padding: 10px; background-color: white; line-height: 1.5; top: 0; left: 50%; transform: translate(-50%, 0); width: 80%; max-width: 1250px; border-style: solid; border-color: red'>Now you have a choice.  Do you want to draw another card from the deck and get a random payout (which will be similar to the example draws you just made), or do you want a known offer for sure? <br><br>Note that the payout your receive from this choice contributes to your score. <br><br>Press F or J to choose left or right</div><div style='position: fixed; bottom: 0;  left: 0%; width:100%; text-align: right'>Choice&nbsp<br>Deck number: 1 of 4&nbsp</div><div style='position: fixed; bottom: 50px; left: 0%; width:100%; font-size: 24pt'>Score: 1000</div>","74",1,"choice_down",1,-1,0,"./img/card1.png",-1,-1,TRUE,100,"",19,1
"html-keyboard-response",25,122573,"0.0-3.0-0.0-12.0","3409","","<div style='float: left; display: flex; justify-content: center; align-items: center; height: 250px; width: 179px; border-style: solid; border-width: 2px; border-color: white; font-size:60px; color:grey; background-color: lightgrey;'')>+100</div><div style='float: left; height: 250px; width: 200px;')></div><div style='float: left;z-index: 1; display: flex; justify-content: center; align-items: center; height: 250px; width: 179px; border-style: solid; border-style: solid; border-width: 2px; border-color: white; font-size:60px;'><div style='position: absolute; z-index: -1; background-image: url(./img/card2.png); height: 250px; width: 179px; opacity: 0.9;'></div>+80</div><div style='position: fixed; font-size: 18pt; padding: 10px; background-color: white; line-height: 1.5; top: 0; left: 50%; transform: translate(-50%, 0); width: 80%; max-width: 1250px; border-style: solid; border-color: red'>You chose another draw from the deck and earned 80 points. In the experiment this outcome will show for 1 second.  In this practice game please press SPACE BAR to continue.</div><div style='position: fixed; bottom: 0;  left: 0%; width:100%; text-align: right'>Choice&nbsp<br>Deck number: 1 of 4&nbsp</div><div style='position: fixed; bottom: 50px; left: 0%; width:100%; font-size: 24pt'>Score: 1080</div>","32",1,"choice_outcome",1,-1,0,"./img/card2.png","","","","",80,19,1
"html-keyboard-response",26,125608,"0.0-3.0-0.1-0.1","3033.399999976158","","<div style='float: left; border-style: solid; border-width: 2px; border-color: white; height: 250px; width: 179px;background-image: url(./img/card1.png); height: 250px; width: 179px;')></div><div style='position: fixed; font-size: 18pt; padding: 10px; background-color: white; line-height: 1.5; top: 0; left: 50%; transform: translate(-50%, 0); width: 80%; max-width: 1250px; border-style: solid; border-color: red'>The words """"New Deck"""" will appear each time there is a new deck with a different average payoff. The task automatically moves on after 1 second.  <br><br>For this practice game, press SPACE BAR to continue.</div><div style='position: fixed; bottom: 0;  left: 0%; width:100%; text-align: right'>Draw number: 0 of 5&nbsp<br>Deck number: 2 of 4&nbsp</div><div style='position: fixed; bottom: 50px; left: 0%; width:100%; font-size: 24pt'>Score: 1080</div>","32",1,"NewDeck",2,"","","","","","","","",19,1
"html-keyboard-response",27,126485,"0.0-3.0-0.1-1.1","875.9000000953674","","<div style='float: left; height: 250px; width: 200px;')></div><div style='float: left; border-style: solid; border-width: 2px; border-color: white; height: 250px; width: 179px;background-image: url(./img/card1.png); height: 250px; width: 179px;')></div><div style='float: left; height: 250px; width: 200px;')></div><div style='position: fixed; font-size: 18pt; padding: 10px; background-color: white; line-height: 1.5; top: 0; left: 50%; transform: translate(-50%, 0); width: 80%; max-width: 1250px; border-style: solid; border-color: red'>Press SPACE BAR to draw one card from the deck ...</div><div style='position: fixed; bottom: 0;  left: 0%; width:100%; text-align: right'>Draw number: 0 of 5&nbsp<br>Deck number: 2 of 4&nbsp</div><div style='position: fixed; bottom: 50px; left: 0%; width:100%; font-size: 24pt'>Score: 1080</div>","32",1,"forced_down",2,-100,-1,"","","","","","",19,1
"html-keyboard-response",28,127212,"0.0-3.0-0.1-2.1","724.1000000238419","","<div style='float: left; height: 250px; width: 200px;')></div><div style='float: left;z-index: 1; display: flex; justify-content: center; align-items: center; height: 250px; width: 179px; border-style: solid; border-style: solid; border-width: 2px; border-color: white; font-size:60px;'><div style='position: absolute; z-index: -1; background-image: url(./img/card2.png); height: 250px; width: 179px; opacity: 0.9;'></div>+60</div><div style='float: left; height: 250px; width: 200px;')></div><div style='position: fixed; bottom: 0;  left: 0%; width:100%; text-align: right'>Draw number: 1 of 5&nbsp<br>Deck number: 2 of 4&nbsp</div><div style='position: fixed; bottom: 50px; left: 0%; width:100%; font-size: 24pt'>Score: 1080</div><div style='position: fixed; font-size: 18pt; padding: 10px; background-color: white; line-height: 1.5; top: 0; left: 50%; transform: translate(-50%, 0); width: 80%; max-width: 1250px; border-style: solid; border-color: red'>This shows the payout from one draw from the deck.<br>Note that this example draw does not contribute to your score.<br><br>  In the experiment this payout disappears after 1 second. During these practice trials press SPACE BAR to move on.</div>","32",1,"forced_outcome",2,60,-1,"./img/card1.png","","","","","",19,1
"html-keyboard-response",29,127729,"0.0-3.0-0.1-3.1","514.5","","<div style='float: left; height: 250px; width: 200px;')></div><div style='float: left; border-style: solid; border-width: 2px; border-color: white; height: 250px; width: 179px;background-image: url(./img/card1.png); height: 250px; width: 179px;')></div><div style='float: left; height: 250px; width: 200px;')></div><div style='position: fixed; font-size: 18pt; padding: 10px; background-color: white; line-height: 1.5; top: 0; left: 50%; transform: translate(-50%, 0); width: 80%; max-width: 1250px; border-style: solid; border-color: red'>Press SPACE BAR to draw one card from the deck ...</div><div style='position: fixed; bottom: 0;  left: 0%; width:100%; text-align: right'>Draw number: 1 of 5&nbsp<br>Deck number: 2 of 4&nbsp</div><div style='position: fixed; bottom: 50px; left: 0%; width:100%; font-size: 24pt'>Score: 1080</div>","32",1,"forced_down",2,-100,-1,"","","","","","",19,1
"html-keyboard-response",30,128867,"0.0-3.0-0.1-4.1","1135.8000000715256","","<div style='float: left; height: 250px; width: 200px;')></div><div style='float: left;z-index: 1; display: flex; justify-content: center; align-items: center; height: 250px; width: 179px; border-style: solid; border-style: solid; border-width: 2px; border-color: white; font-size:60px;'><div style='position: absolute; z-index: -1; background-image: url(./img/card2.png); height: 250px; width: 179px; opacity: 0.9;'></div>+80</div><div style='float: left; height: 250px; width: 200px;')></div><div style='position: fixed; bottom: 0;  left: 0%; width:100%; text-align: right'>Draw number: 2 of 5&nbsp<br>Deck number: 2 of 4&nbsp</div><div style='position: fixed; bottom: 50px; left: 0%; width:100%; font-size: 24pt'>Score: 1080</div><div style='position: fixed; font-size: 18pt; padding: 10px; background-color: white; line-height: 1.5; top: 0; left: 50%; transform: translate(-50%, 0); width: 80%; max-width: 1250px; border-style: solid; border-color: red'>This shows the payout from one draw from the deck.<br>Note that this example draw does not contribute to your score.<br><br>  In the experiment this payout disappears after 1 second. During these practice trials press SPACE BAR to move on.</div>","32",1,"forced_outcome",2,80,-1,"./img/card1.png","","","","","",19,1
"html-keyboard-response",31,129295,"0.0-3.0-0.1-5.1","427.2999999523163","","<div style='float: left; height: 250px; width: 200px;')></div><div style='float: left; border-style: solid; border-width: 2px; border-color: white; height: 250px; width: 179px;background-image: url(./img/card1.png); height: 250px; width: 179px;')></div><div style='float: left; height: 250px; width: 200px;')></div><div style='position: fixed; font-size: 18pt; padding: 10px; background-color: white; line-height: 1.5; top: 0; left: 50%; transform: translate(-50%, 0); width: 80%; max-width: 1250px; border-style: solid; border-color: red'>Press SPACE BAR to draw one card from the deck ...</div><div style='position: fixed; bottom: 0;  left: 0%; width:100%; text-align: right'>Draw number: 2 of 5&nbsp<br>Deck number: 2 of 4&nbsp</div><div style='position: fixed; bottom: 50px; left: 0%; width:100%; font-size: 24pt'>Score: 1080</div>","32",1,"forced_down",2,-100,-1,"","","","","","",19,1
"html-keyboard-response",32,129690,"0.0-3.0-0.1-6.1","391.7000000476837","","<div style='float: left; height: 250px; width: 200px;')></div><div style='float: left;z-index: 1; display: flex; justify-content: center; align-items: center; height: 250px; width: 179px; border-style: solid; border-style: solid; border-width: 2px; border-color: white; font-size:60px;'><div style='position: absolute; z-index: -1; background-image: url(./img/card2.png); height: 250px; width: 179px; opacity: 0.9;'></div>+60</div><div style='float: left; height: 250px; width: 200px;')></div><div style='position: fixed; bottom: 0;  left: 0%; width:100%; text-align: right'>Draw number: 3 of 5&nbsp<br>Deck number: 2 of 4&nbsp</div><div style='position: fixed; bottom: 50px; left: 0%; width:100%; font-size: 24pt'>Score: 1080</div><div style='position: fixed; font-size: 18pt; padding: 10px; background-color: white; line-height: 1.5; top: 0; left: 50%; transform: translate(-50%, 0); width: 80%; max-width: 1250px; border-style: solid; border-color: red'>This shows the payout from one draw from the deck.<br>Note that this example draw does not contribute to your score.<br><br>  In the experiment this payout disappears after 1 second. During these practice trials press SPACE BAR to move on.</div>","32",1,"forced_outcome",2,60,-1,"./img/card1.png","","","","","",19,1
"html-keyboard-response",33,130121,"0.0-3.0-0.1-7.1","429.1999999284744","","<div style='float: left; height: 250px; width: 200px;')></div><div style='float: left; border-style: solid; border-width: 2px; border-color: white; height: 250px; width: 179px;background-image: url(./img/card1.png); height: 250px; width: 179px;')></div><div style='float: left; height: 250px; width: 200px;')></div><div style='position: fixed; font-size: 18pt; padding: 10px; background-color: white; line-height: 1.5; top: 0; left: 50%; transform: translate(-50%, 0); width: 80%; max-width: 1250px; border-style: solid; border-color: red'>Press SPACE BAR to draw one card from the deck ...</div><div style='position: fixed; bottom: 0;  left: 0%; width:100%; text-align: right'>Draw number: 3 of 5&nbsp<br>Deck number: 2 of 4&nbsp</div><div style='position: fixed; bottom: 50px; left: 0%; width:100%; font-size: 24pt'>Score: 1080</div>","32",1,"forced_down",2,-100,-1,"","","","","","",19,1
"html-keyboard-response",34,130501,"0.0-3.0-0.1-8.1","377.7000000476837","","<div style='float: left; height: 250px; width: 200px;')></div><div style='float: left;z-index: 1; display: flex; justify-content: center; align-items: center; height: 250px; width: 179px; border-style: solid; border-style: solid; border-width: 2px; border-color: white; font-size:60px;'><div style='position: absolute; z-index: -1; background-image: url(./img/card2.png); height: 250px; width: 179px; opacity: 0.9;'></div>+70</div><div style='float: left; height: 250px; width: 200px;')></div><div style='position: fixed; bottom: 0;  left: 0%; width:100%; text-align: right'>Draw number: 4 of 5&nbsp<br>Deck number: 2 of 4&nbsp</div><div style='position: fixed; bottom: 50px; left: 0%; width:100%; font-size: 24pt'>Score: 1080</div><div style='position: fixed; font-size: 18pt; padding: 10px; background-color: white; line-height: 1.5; top: 0; left: 50%; transform: translate(-50%, 0); width: 80%; max-width: 1250px; border-style: solid; border-color: red'>This shows the payout from one draw from the deck.<br>Note that this example draw does not contribute to your score.<br><br>  In the experiment this payout disappears after 1 second. During these practice trials press SPACE BAR to move on.</div>","32",1,"forced_outcome",2,70,-1,"./img/card1.png","","","","","",19,1
"html-keyboard-response",35,130862,"0.0-3.0-0.1-9.1","360.2000000476837","","<div style='float: left; height: 250px; width: 200px;')></div><div style='float: left; border-style: solid; border-width: 2px; border-color: white; height: 250px; width: 179px;background-image: url(./img/card1.png); height: 250px; width: 179px;')></div><div style='float: left; height: 250px; width: 200px;')></div><div style='position: fixed; font-size: 18pt; padding: 10px; background-color: white; line-height: 1.5; top: 0; left: 50%; transform: translate(-50%, 0); width: 80%; max-width: 1250px; border-style: solid; border-color: red'>Press SPACE BAR to draw one card from the deck ...</div><div style='position: fixed; bottom: 0;  left: 0%; width:100%; text-align: right'>Draw number: 4 of 5&nbsp<br>Deck number: 2 of 4&nbsp</div><div style='position: fixed; bottom: 50px; left: 0%; width:100%; font-size: 24pt'>Score: 1080</div>","32",1,"forced_down",2,-100,-1,"","","","","","",19,1
"html-keyboard-response",36,131238,"0.0-3.0-0.1-10.1","373.39999997615814","","<div style='float: left; height: 250px; width: 200px;')></div><div style='float: left;z-index: 1; display: flex; justify-content: center; align-items: center; height: 250px; width: 179px; border-style: solid; border-style: solid; border-width: 2px; border-color: white; font-size:60px;'><div style='position: absolute; z-index: -1; background-image: url(./img/card2.png); height: 250px; width: 179px; opacity: 0.9;'></div>+60</div><div style='float: left; height: 250px; width: 200px;')></div><div style='position: fixed; bottom: 0;  left: 0%; width:100%; text-align: right'>Draw number: 5 of 5&nbsp<br>Deck number: 2 of 4&nbsp</div><div style='position: fixed; bottom: 50px; left: 0%; width:100%; font-size: 24pt'>Score: 1080</div><div style='position: fixed; font-size: 18pt; padding: 10px; background-color: white; line-height: 1.5; top: 0; left: 50%; transform: translate(-50%, 0); width: 80%; max-width: 1250px; border-style: solid; border-color: red'>This shows the payout from one draw from the deck.<br>Note that this example draw does not contribute to your score.<br><br>  In the experiment this payout disappears after 1 second. During these practice trials press SPACE BAR to move on.</div>","32",1,"forced_outcome",2,60,-1,"./img/card1.png","","","","","",19,1
"html-keyboard-response",37,136210,"0.0-3.0-0.1-11.1","4969.399999976158","","<div style='float: left; border-style: solid; border-width: 2px; border-color: white; height: 250px; width: 179px;background-image: url(./img/card1.png); height: 250px; width: 179px;')></div><div style='float: left; height: 250px; width: 200px;')></div><div style='float: left; display: flex; justify-content: center; align-items: center; height: 250px; width: 179px; border-style: solid; border-width: 2px; border-color: white; font-size:60px; color:grey; background-color: lightgrey;'')>+60</div><div style='position: fixed; font-size: 18pt; padding: 10px; background-color: white; line-height: 1.5; top: 0; left: 50%; transform: translate(-50%, 0); width: 80%; max-width: 1250px; border-style: solid; border-color: red'>Now you have a choice.  Do you want to draw another card from the deck and get a random payout (which will be similar to the example draws you just made), or do you want a known offer for sure? <br><br>Note that the payout your receive from this choice contributes to your score. <br><br>Press F or J to choose left or right</div><div style='position: fixed; bottom: 0;  left: 0%; width:100%; text-align: right'>Choice&nbsp<br>Deck number: 2 of 4&nbsp</div><div style='position: fixed; bottom: 50px; left: 0%; width:100%; font-size: 24pt'>Score: 1080</div>","70",1,"choice_down",2,-1,1,"./img/card1.png",-1,-1,TRUE,60,"",19,1
"html-keyboard-response",38,136936,"0.0-3.0-0.1-12.1","723.7999999523163","","<div style='float: left;z-index: 1; display: flex; justify-content: center; align-items: center; height: 250px; width: 179px; border-style: solid; border-style: solid; border-width: 2px; border-color: white; font-size:60px;'><div style='position: absolute; z-index: -1; background-image: url(./img/card2.png); height: 250px; width: 179px; opacity: 0.9;'></div>+40</div><div style='float: left; height: 250px; width: 200px;')></div><div style='float: left; display: flex; justify-content: center; align-items: center; height: 250px; width: 179px; border-style: solid; border-width: 2px; border-color: white; font-size:60px; color:grey; background-color: lightgrey;'')>+60</div><div style='position: fixed; font-size: 18pt; padding: 10px; background-color: white; line-height: 1.5; top: 0; left: 50%; transform: translate(-50%, 0); width: 80%; max-width: 1250px; border-style: solid; border-color: red'>You chose another draw from the deck and earned 40 points. In the experiment this outcome will show for 1 second.  In this practice game please press SPACE BAR to continue.</div><div style='position: fixed; bottom: 0;  left: 0%; width:100%; text-align: right'>Choice&nbsp<br>Deck number: 2 of 4&nbsp</div><div style='position: fixed; bottom: 50px; left: 0%; width:100%; font-size: 24pt'>Score: 1120</div>","32",1,"choice_outcome",2,-1,1,"./img/card2.png","","","","",40,19,1
"html-keyboard-response",39,142637,"0.0-3.0-0.2-0.2","5699","","<div style='float: left; border-style: solid; border-width: 2px; border-color: white; height: 250px; width: 179px;background-image: url(./img/card1.png); height: 250px; width: 179px;')></div><div style='position: fixed; font-size: 18pt; padding: 10px; background-color: white; line-height: 1.5; top: 0; left: 50%; transform: translate(-50%, 0); width: 80%; max-width: 1250px; border-style: solid; border-color: red'>The words """"New Deck"""" will appear each time there is a new deck with a different average payoff. The task automatically moves on after 1 second.  <br><br>For this practice game, press SPACE BAR to continue.</div><div style='position: fixed; bottom: 0;  left: 0%; width:100%; text-align: right'>Draw number: 0 of 5&nbsp<br>Deck number: 3 of 4&nbsp</div><div style='position: fixed; bottom: 50px; left: 0%; width:100%; font-size: 24pt'>Score: 1120</div>","32",1,"NewDeck",3,"","","","","","","","",19,1
"html-keyboard-response",40,143855,"0.0-3.0-0.2-1.2","1216.7000000476837","","<div style='float: left; height: 250px; width: 200px;')></div><div style='float: left; border-style: solid; border-width: 2px; border-color: white; height: 250px; width: 179px;background-image: url(./img/card1.png); height: 250px; width: 179px;')></div><div style='float: left; height: 250px; width: 200px;')></div><div style='position: fixed; font-size: 18pt; padding: 10px; background-color: white; line-height: 1.5; top: 0; left: 50%; transform: translate(-50%, 0); width: 80%; max-width: 1250px; border-style: solid; border-color: red'>Press SPACE BAR to draw one card from the deck ...</div><div style='position: fixed; bottom: 0;  left: 0%; width:100%; text-align: right'>Draw number: 0 of 5&nbsp<br>Deck number: 3 of 4&nbsp</div><div style='position: fixed; bottom: 50px; left: 0%; width:100%; font-size: 24pt'>Score: 1120</div>","32",1,"forced_down",3,-100,-1,"","","","","","",19,1
"html-keyboard-response",41,144104,"0.0-3.0-0.2-2.2","246.5","","<div style='float: left; height: 250px; width: 200px;')></div><div style='float: left;z-index: 1; display: flex; justify-content: center; align-items: center; height: 250px; width: 179px; border-style: solid; border-width: 2px; border-color: white; font-size:60px;'><div style='position: absolute; z-index: -1; background-image: url(./img/card2.png); height: 250px; width: 179px; opacity: 0.9;'></div>-50</div><div style='float: left; height: 250px; width: 200px;')></div><div style='position: fixed; bottom: 0;  left: 0%; width:100%; text-align: right'>Draw number: 1 of 5&nbsp<br>Deck number: 3 of 4&nbsp</div><div style='position: fixed; bottom: 50px; left: 0%; width:100%; font-size: 24pt'>Score: 1120</div><div style='position: fixed; font-size: 18pt; padding: 10px; background-color: white; line-height: 1.5; top: 0; left: 50%; transform: translate(-50%, 0); width: 80%; max-width: 1250px; border-style: solid; border-color: red'>This shows the payout from one draw from the deck.<br>Note that this example draw does not contribute to your score.<br><br>  In the experiment this payout disappears after 1 second. During these practice trials press SPACE BAR to move on.</div>","32",1,"forced_outcome",3,-50,-1,"./img/card1.png","","","","","",19,1
"html-keyboard-response",42,144467,"0.0-3.0-0.2-3.2","360.89999997615814","","<div style='float: left; height: 250px; width: 200px;')></div><div style='float: left; border-style: solid; border-width: 2px; border-color: white; height: 250px; width: 179px;background-image: url(./img/card1.png); height: 250px; width: 179px;')></div><div style='float: left; height: 250px; width: 200px;')></div><div style='position: fixed; font-size: 18pt; padding: 10px; background-color: white; line-height: 1.5; top: 0; left: 50%; transform: translate(-50%, 0); width: 80%; max-width: 1250px; border-style: solid; border-color: red'>Press SPACE BAR to draw one card from the deck ...</div><div style='position: fixed; bottom: 0;  left: 0%; width:100%; text-align: right'>Draw number: 1 of 5&nbsp<br>Deck number: 3 of 4&nbsp</div><div style='position: fixed; bottom: 50px; left: 0%; width:100%; font-size: 24pt'>Score: 1120</div>","32",1,"forced_down",3,-100,-1,"","","","","","",19,1
"html-keyboard-response",43,144716,"0.0-3.0-0.2-4.2","246.40000009536743","","<div style='float: left; height: 250px; width: 200px;')></div><div style='float: left;z-index: 1; display: flex; justify-content: center; align-items: center; height: 250px; width: 179px; border-style: solid; border-width: 2px; border-color: white; font-size:60px;'><div style='position: absolute; z-index: -1; background-image: url(./img/card2.png); height: 250px; width: 179px; opacity: 0.9;'></div>-70</div><div style='float: left; height: 250px; width: 200px;')></div><div style='position: fixed; bottom: 0;  left: 0%; width:100%; text-align: right'>Draw number: 2 of 5&nbsp<br>Deck number: 3 of 4&nbsp</div><div style='position: fixed; bottom: 50px; left: 0%; width:100%; font-size: 24pt'>Score: 1120</div><div style='position: fixed; font-size: 18pt; padding: 10px; background-color: white; line-height: 1.5; top: 0; left: 50%; transform: translate(-50%, 0); width: 80%; max-width: 1250px; border-style: solid; border-color: red'>This shows the payout from one draw from the deck.<br>Note that this example draw does not contribute to your score.<br><br>  In the experiment this payout disappears after 1 second. During these practice trials press SPACE BAR to move on.</div>","32",1,"forced_outcome",3,-70,-1,"./img/card1.png","","","","","",19,1
"html-keyboard-response",44,144913,"0.0-3.0-0.2-5.2","195.29999995231628","","<div style='float: left; height: 250px; width: 200px;')></div><div style='float: left; border-style: solid; border-width: 2px; border-color: white; height: 250px; width: 179px;background-image: url(./img/card1.png); height: 250px; width: 179px;')></div><div style='float: left; height: 250px; width: 200px;')></div><div style='position: fixed; font-size: 18pt; padding: 10px; background-color: white; line-height: 1.5; top: 0; left: 50%; transform: translate(-50%, 0); width: 80%; max-width: 1250px; border-style: solid; border-color: red'>Press SPACE BAR to draw one card from the deck ...</div><div style='position: fixed; bottom: 0;  left: 0%; width:100%; text-align: right'>Draw number: 2 of 5&nbsp<br>Deck number: 3 of 4&nbsp</div><div style='position: fixed; bottom: 50px; left: 0%; width:100%; font-size: 24pt'>Score: 1120</div>","32",1,"forced_down",3,-100,-1,"","","","","","",19,1
"html-keyboard-response",45,145087,"0.0-3.0-0.2-6.2","172.30000007152557","","<div style='float: left; height: 250px; width: 200px;')></div><div style='float: left;z-index: 1; display: flex; justify-content: center; align-items: center; height: 250px; width: 179px; border-style: solid; border-width: 2px; border-color: white; font-size:60px;'><div style='position: absolute; z-index: -1; background-image: url(./img/card2.png); height: 250px; width: 179px; opacity: 0.9;'></div>-10</div><div style='float: left; height: 250px; width: 200px;')></div><div style='position: fixed; bottom: 0;  left: 0%; width:100%; text-align: right'>Draw number: 3 of 5&nbsp<br>Deck number: 3 of 4&nbsp</div><div style='position: fixed; bottom: 50px; left: 0%; width:100%; font-size: 24pt'>Score: 1120</div><div style='position: fixed; font-size: 18pt; padding: 10px; background-color: white; line-height: 1.5; top: 0; left: 50%; transform: translate(-50%, 0); width: 80%; max-width: 1250px; border-style: solid; border-color: red'>This shows the payout from one draw from the deck.<br>Note that this example draw does not contribute to your score.<br><br>  In the experiment this payout disappears after 1 second. During these practice trials press SPACE BAR to move on.</div>","32",1,"forced_outcome",3,-10,-1,"./img/card1.png","","","","","",19,1
"html-keyboard-response",46,145545,"0.0-3.0-0.2-7.2","456.7000000476837","","<div style='float: left; height: 250px; width: 200px;')></div><div style='float: left; border-style: solid; border-width: 2px; border-color: white; height: 250px; width: 179px;background-image: url(./img/card1.png); height: 250px; width: 179px;')></div><div style='float: left; height: 250px; width: 200px;')></div><div style='position: fixed; font-size: 18pt; padding: 10px; background-color: white; line-height: 1.5; top: 0; left: 50%; transform: translate(-50%, 0); width: 80%; max-width: 1250px; border-style: solid; border-color: red'>Press SPACE BAR to draw one card from the deck ...</div><div style='position: fixed; bottom: 0;  left: 0%; width:100%; text-align: right'>Draw number: 3 of 5&nbsp<br>Deck number: 3 of 4&nbsp</div><div style='position: fixed; bottom: 50px; left: 0%; width:100%; font-size: 24pt'>Score: 1120</div>","32",1,"forced_down",3,-100,-1,"","","","","","",19,1
"html-keyboard-response",47,146088,"0.0-3.0-0.2-8.2","540.6000000238419","","<div style='float: left; height: 250px; width: 200px;')></div><div style='float: left;z-index: 1; display: flex; justify-content: center; align-items: center; height: 250px; width: 179px; border-style: solid; border-width: 2px; border-color: white; font-size:60px;'><div style='position: absolute; z-index: -1; background-image: url(./img/card2.png); height: 250px; width: 179px; opacity: 0.9;'></div>-60</div><div style='float: left; height: 250px; width: 200px;')></div><div style='position: fixed; bottom: 0;  left: 0%; width:100%; text-align: right'>Draw number: 4 of 5&nbsp<br>Deck number: 3 of 4&nbsp</div><div style='position: fixed; bottom: 50px; left: 0%; width:100%; font-size: 24pt'>Score: 1120</div><div style='position: fixed; font-size: 18pt; padding: 10px; background-color: white; line-height: 1.5; top: 0; left: 50%; transform: translate(-50%, 0); width: 80%; max-width: 1250px; border-style: solid; border-color: red'>This shows the payout from one draw from the deck.<br>Note that this example draw does not contribute to your score.<br><br>  In the experiment this payout disappears after 1 second. During these practice trials press SPACE BAR to move on.</div>","32",1,"forced_outcome",3,-60,-1,"./img/card1.png","","","","","",19,1
"html-keyboard-response",48,146510,"0.0-3.0-0.2-9.2","419.89999997615814","","<div style='float: left; height: 250px; width: 200px;')></div><div style='float: left; border-style: solid; border-width: 2px; border-color: white; height: 250px; width: 179px;background-image: url(./img/card1.png); height: 250px; width: 179px;')></div><div style='float: left; height: 250px; width: 200px;')></div><div style='position: fixed; font-size: 18pt; padding: 10px; background-color: white; line-height: 1.5; top: 0; left: 50%; transform: translate(-50%, 0); width: 80%; max-width: 1250px; border-style: solid; border-color: red'>Press SPACE BAR to draw one card from the deck ...</div><div style='position: fixed; bottom: 0;  left: 0%; width:100%; text-align: right'>Draw number: 4 of 5&nbsp<br>Deck number: 3 of 4&nbsp</div><div style='position: fixed; bottom: 50px; left: 0%; width:100%; font-size: 24pt'>Score: 1120</div>","32",1,"forced_down",3,-100,-1,"","","","","","",19,1
"html-keyboard-response",49,146875,"0.0-3.0-0.2-10.2","363.60000002384186","","<div style='float: left; height: 250px; width: 200px;')></div><div style='float: left;z-index: 1; display: flex; justify-content: center; align-items: center; height: 250px; width: 179px; border-style: solid; border-width: 2px; border-color: white; font-size:60px;'><div style='position: absolute; z-index: -1; background-image: url(./img/card2.png); height: 250px; width: 179px; opacity: 0.9;'></div>-530</div><div style='float: left; height: 250px; width: 200px;')></div><div style='position: fixed; bottom: 0;  left: 0%; width:100%; text-align: right'>Draw number: 5 of 5&nbsp<br>Deck number: 3 of 4&nbsp</div><div style='position: fixed; bottom: 50px; left: 0%; width:100%; font-size: 24pt'>Score: 1120</div><div style='position: fixed; font-size: 18pt; padding: 10px; background-color: white; line-height: 1.5; top: 0; left: 50%; transform: translate(-50%, 0); width: 80%; max-width: 1250px; border-style: solid; border-color: red'>This shows the payout from one draw from the deck.<br>Note that this example draw does not contribute to your score.<br><br>  In the experiment this payout disappears after 1 second. During these practice trials press SPACE BAR to move on.</div>","32",1,"forced_outcome",3,-530,-1,"./img/card1.png","","","","","",19,1
"html-keyboard-response",50,149735,"0.0-3.0-0.2-11.2","2856.899999976158","","<div style='float: left; border-style: solid; border-width: 2px; border-color: white; height: 250px; width: 179px;background-image: url(./img/card1.png); height: 250px; width: 179px;')></div><div style='float: left; height: 250px; width: 200px;')></div><div style='float: left; display: flex; justify-content: center; align-items: center; height: 250px; width: 179px; border-style: solid; border-width: 2px; border-color: white; font-size:60px; color:grey; background-color: lightgrey;'')>-90</div><div style='position: fixed; font-size: 18pt; padding: 10px; background-color: white; line-height: 1.5; top: 0; left: 50%; transform: translate(-50%, 0); width: 80%; max-width: 1250px; border-style: solid; border-color: red'>Now you have a choice.  Do you want to draw another card from the deck and get a random payout (which will be similar to the example draws you just made), or do you want a known offer for sure? <br><br>Note that the payout your receive from this choice contributes to your score. <br><br>Press F or J to choose left or right</div><div style='position: fixed; bottom: 0;  left: 0%; width:100%; text-align: right'>Choice&nbsp<br>Deck number: 3 of 4&nbsp</div><div style='position: fixed; bottom: 50px; left: 0%; width:100%; font-size: 24pt'>Score: 1120</div>","70",1,"choice_down",3,-1,1,"./img/card1.png",-1,-1,TRUE,-90,"",19,1
"html-keyboard-response",51,151127,"0.0-3.0-0.2-12.2","1389","","<div style='float: left;z-index: 1; display: flex; justify-content: center; align-items: center; height: 250px; width: 179px; border-style: solid; border-width: 2px; border-color: white; font-size:60px;'><div style='position: absolute; z-index: -1; background-image: url(./img/card2.png); height: 250px; width: 179px; opacity: 0.9;'></div>-60</div><div style='float: left; height: 250px; width: 200px;')></div><div style='float: left; display: flex; justify-content: center; align-items: center; height: 250px; width: 179px; border-style: solid; border-width: 2px; border-color: white; font-size:60px; color:grey; background-color: lightgrey;'')>-90</div><div style='position: fixed; font-size: 18pt; padding: 10px; background-color: white; line-height: 1.5; top: 0; left: 50%; transform: translate(-50%, 0); width: 80%; max-width: 1250px; border-style: solid; border-color: red'>You chose another draw from the deck and earned -60 points. In the experiment this outcome will show for 1 second.  In this practice game please press SPACE BAR to continue.</div><div style='position: fixed; bottom: 0;  left: 0%; width:100%; text-align: right'>Choice&nbsp<br>Deck number: 3 of 4&nbsp</div><div style='position: fixed; bottom: 50px; left: 0%; width:100%; font-size: 24pt'>Score: 1060</div>","32",1,"choice_outcome",3,-1,1,"./img/card2.png","","","","",-60,19,1
"html-keyboard-response",52,151965,"0.0-3.0-0.3-0.3","836.5999999046326","","<div style='float: left; border-style: solid; border-width: 2px; border-color: white; height: 250px; width: 179px;background-image: url(./img/card1.png); height: 250px; width: 179px;')></div><div style='position: fixed; font-size: 18pt; padding: 10px; background-color: white; line-height: 1.5; top: 0; left: 50%; transform: translate(-50%, 0); width: 80%; max-width: 1250px; border-style: solid; border-color: red'>The words """"New Deck"""" will appear each time there is a new deck with a different average payoff. The task automatically moves on after 1 second.  <br><br>For this practice game, press SPACE BAR to continue.</div><div style='position: fixed; bottom: 0;  left: 0%; width:100%; text-align: right'>Draw number: 0 of 5&nbsp<br>Deck number: 4 of 4&nbsp</div><div style='position: fixed; bottom: 50px; left: 0%; width:100%; font-size: 24pt'>Score: 1060</div>","32",1,"NewDeck",4,"","","","","","","","",19,1
"html-keyboard-response",53,152477,"0.0-3.0-0.3-1.3","510","","<div style='float: left; height: 250px; width: 200px;')></div><div style='float: left; border-style: solid; border-width: 2px; border-color: white; height: 250px; width: 179px;background-image: url(./img/card1.png); height: 250px; width: 179px;')></div><div style='float: left; height: 250px; width: 200px;')></div><div style='position: fixed; font-size: 18pt; padding: 10px; background-color: white; line-height: 1.5; top: 0; left: 50%; transform: translate(-50%, 0); width: 80%; max-width: 1250px; border-style: solid; border-color: red'>Press SPACE BAR to draw one card from the deck ...</div><div style='position: fixed; bottom: 0;  left: 0%; width:100%; text-align: right'>Draw number: 0 of 5&nbsp<br>Deck number: 4 of 4&nbsp</div><div style='position: fixed; bottom: 50px; left: 0%; width:100%; font-size: 24pt'>Score: 1060</div>","32",1,"forced_down",4,-100,-1,"","","","","","",19,1
"html-keyboard-response",54,152668,"0.0-3.0-0.3-2.3","188.19999992847443","","<div style='float: left; height: 250px; width: 200px;')></div><div style='float: left;z-index: 1; display: flex; justify-content: center; align-items: center; height: 250px; width: 179px; border-style: solid; border-width: 2px; border-color: white; font-size:60px;'><div style='position: absolute; z-index: -1; background-image: url(./img/card2.png); height: 250px; width: 179px; opacity: 0.9;'></div>-40</div><div style='float: left; height: 250px; width: 200px;')></div><div style='position: fixed; bottom: 0;  left: 0%; width:100%; text-align: right'>Draw number: 1 of 5&nbsp<br>Deck number: 4 of 4&nbsp</div><div style='position: fixed; bottom: 50px; left: 0%; width:100%; font-size: 24pt'>Score: 1060</div><div style='position: fixed; font-size: 18pt; padding: 10px; background-color: white; line-height: 1.5; top: 0; left: 50%; transform: translate(-50%, 0); width: 80%; max-width: 1250px; border-style: solid; border-color: red'>This shows the payout from one draw from the deck.<br>Note that this example draw does not contribute to your score.<br><br>  In the experiment this payout disappears after 1 second. During these practice trials press SPACE BAR to move on.</div>","32",1,"forced_outcome",4,-40,-1,"./img/card1.png","","","","","",19,1
"html-keyboard-response",55,152839,"0.0-3.0-0.3-3.3","169.69999992847443","","<div style='float: left; height: 250px; width: 200px;')></div><div style='float: left; border-style: solid; border-width: 2px; border-color: white; height: 250px; width: 179px;background-image: url(./img/card1.png); height: 250px; width: 179px;')></div><div style='float: left; height: 250px; width: 200px;')></div><div style='position: fixed; font-size: 18pt; padding: 10px; background-color: white; line-height: 1.5; top: 0; left: 50%; transform: translate(-50%, 0); width: 80%; max-width: 1250px; border-style: solid; border-color: red'>Press SPACE BAR to draw one card from the deck ...</div><div style='position: fixed; bottom: 0;  left: 0%; width:100%; text-align: right'>Draw number: 1 of 5&nbsp<br>Deck number: 4 of 4&nbsp</div><div style='position: fixed; bottom: 50px; left: 0%; width:100%; font-size: 24pt'>Score: 1060</div>","32",1,"forced_down",4,-100,-1,"","","","","","",19,1
"html-keyboard-response",56,153038,"0.0-3.0-0.3-4.3","196.29999995231628","","<div style='float: left; height: 250px; width: 200px;')></div><div style='float: left;z-index: 1; display: flex; justify-content: center; align-items: center; height: 250px; width: 179px; border-style: solid; border-width: 2px; border-color: white; font-size:60px;'><div style='position: absolute; z-index: -1; background-image: url(./img/card2.png); height: 250px; width: 179px; opacity: 0.9;'></div>-50</div><div style='float: left; height: 250px; width: 200px;')></div><div style='position: fixed; bottom: 0;  left: 0%; width:100%; text-align: right'>Draw number: 2 of 5&nbsp<br>Deck number: 4 of 4&nbsp</div><div style='position: fixed; bottom: 50px; left: 0%; width:100%; font-size: 24pt'>Score: 1060</div><div style='position: fixed; font-size: 18pt; padding: 10px; background-color: white; line-height: 1.5; top: 0; left: 50%; transform: translate(-50%, 0); width: 80%; max-width: 1250px; border-style: solid; border-color: red'>This shows the payout from one draw from the deck.<br>Note that this example draw does not contribute to your score.<br><br>  In the experiment this payout disappears after 1 second. During these practice trials press SPACE BAR to move on.</div>","32",1,"forced_outcome",4,-50,-1,"./img/card1.png","","","","","",19,1
"html-keyboard-response",57,153185,"0.0-3.0-0.3-5.3","145.19999992847443","","<div style='float: left; height: 250px; width: 200px;')></div><div style='float: left; border-style: solid; border-width: 2px; border-color: white; height: 250px; width: 179px;background-image: url(./img/card1.png); height: 250px; width: 179px;')></div><div style='float: left; height: 250px; width: 200px;')></div><div style='position: fixed; font-size: 18pt; padding: 10px; background-color: white; line-height: 1.5; top: 0; left: 50%; transform: translate(-50%, 0); width: 80%; max-width: 1250px; border-style: solid; border-color: red'>Press SPACE BAR to draw one card from the deck ...</div><div style='position: fixed; bottom: 0;  left: 0%; width:100%; text-align: right'>Draw number: 2 of 5&nbsp<br>Deck number: 4 of 4&nbsp</div><div style='position: fixed; bottom: 50px; left: 0%; width:100%; font-size: 24pt'>Score: 1060</div>","32",1,"forced_down",4,-100,-1,"","","","","","",19,1
"html-keyboard-response",58,153362,"0.0-3.0-0.3-6.3","175.29999995231628","","<div style='float: left; height: 250px; width: 200px;')></div><div style='float: left;z-index: 1; display: flex; justify-content: center; align-items: center; height: 250px; width: 179px; border-style: solid; border-width: 2px; border-color: white; font-size:60px;'><div style='position: absolute; z-index: -1; background-image: url(./img/card2.png); height: 250px; width: 179px; opacity: 0.9;'></div>-50</div><div style='float: left; height: 250px; width: 200px;')></div><div style='position: fixed; bottom: 0;  left: 0%; width:100%; text-align: right'>Draw number: 3 of 5&nbsp<br>Deck number: 4 of 4&nbsp</div><div style='position: fixed; bottom: 50px; left: 0%; width:100%; font-size: 24pt'>Score: 1060</div><div style='position: fixed; font-size: 18pt; padding: 10px; background-color: white; line-height: 1.5; top: 0; left: 50%; transform: translate(-50%, 0); width: 80%; max-width: 1250px; border-style: solid; border-color: red'>This shows the payout from one draw from the deck.<br>Note that this example draw does not contribute to your score.<br><br>  In the experiment this payout disappears after 1 second. During these practice trials press SPACE BAR to move on.</div>","32",1,"forced_outcome",4,-50,-1,"./img/card1.png","","","","","",19,1
"html-keyboard-response",59,153648,"0.0-3.0-0.3-7.3","284.1999999284744","","<div style='float: left; height: 250px; width: 200px;')></div><div style='float: left; border-style: solid; border-width: 2px; border-color: white; height: 250px; width: 179px;background-image: url(./img/card1.png); height: 250px; width: 179px;')></div><div style='float: left; height: 250px; width: 200px;')></div><div style='position: fixed; font-size: 18pt; padding: 10px; background-color: white; line-height: 1.5; top: 0; left: 50%; transform: translate(-50%, 0); width: 80%; max-width: 1250px; border-style: solid; border-color: red'>Press SPACE BAR to draw one card from the deck ...</div><div style='position: fixed; bottom: 0;  left: 0%; width:100%; text-align: right'>Draw number: 3 of 5&nbsp<br>Deck number: 4 of 4&nbsp</div><div style='position: fixed; bottom: 50px; left: 0%; width:100%; font-size: 24pt'>Score: 1060</div>","32",1,"forced_down",4,-100,-1,"","","","","","",19,1
"html-keyboard-response",60,153939,"0.0-3.0-0.3-8.3","288.60000002384186","","<div style='float: left; height: 250px; width: 200px;')></div><div style='float: left;z-index: 1; display: flex; justify-content: center; align-items: center; height: 250px; width: 179px; border-style: solid; border-width: 2px; border-color: white; font-size:60px;'><div style='position: absolute; z-index: -1; background-image: url(./img/card2.png); height: 250px; width: 179px; opacity: 0.9;'></div>-60</div><div style='float: left; height: 250px; width: 200px;')></div><div style='position: fixed; bottom: 0;  left: 0%; width:100%; text-align: right'>Draw number: 4 of 5&nbsp<br>Deck number: 4 of 4&nbsp</div><div style='position: fixed; bottom: 50px; left: 0%; width:100%; font-size: 24pt'>Score: 1060</div><div style='position: fixed; font-size: 18pt; padding: 10px; background-color: white; line-height: 1.5; top: 0; left: 50%; transform: translate(-50%, 0); width: 80%; max-width: 1250px; border-style: solid; border-color: red'>This shows the payout from one draw from the deck.<br>Note that this example draw does not contribute to your score.<br><br>  In the experiment this payout disappears after 1 second. During these practice trials press SPACE BAR to move on.</div>","32",1,"forced_outcome",4,-60,-1,"./img/card1.png","","","","","",19,1
"html-keyboard-response",61,154237,"0.0-3.0-0.3-9.3","296.39999997615814","","<div style='float: left; height: 250px; width: 200px;')></div><div style='float: left; border-style: solid; border-width: 2px; border-color: white; height: 250px; width: 179px;background-image: url(./img/card1.png); height: 250px; width: 179px;')></div><div style='float: left; height: 250px; width: 200px;')></div><div style='position: fixed; font-size: 18pt; padding: 10px; background-color: white; line-height: 1.5; top: 0; left: 50%; transform: translate(-50%, 0); width: 80%; max-width: 1250px; border-style: solid; border-color: red'>Press SPACE BAR to draw one card from the deck ...</div><div style='position: fixed; bottom: 0;  left: 0%; width:100%; text-align: right'>Draw number: 4 of 5&nbsp<br>Deck number: 4 of 4&nbsp</div><div style='position: fixed; bottom: 50px; left: 0%; width:100%; font-size: 24pt'>Score: 1060</div>","32",1,"forced_down",4,-100,-1,"","","","","","",19,1
"html-keyboard-response",62,154543,"0.0-3.0-0.3-10.3","304","","<div style='float: left; height: 250px; width: 200px;')></div><div style='float: left;z-index: 1; display: flex; justify-content: center; align-items: center; height: 250px; width: 179px; border-style: solid; border-width: 2px; border-color: white; font-size:60px;'><div style='position: absolute; z-index: -1; background-image: url(./img/card2.png); height: 250px; width: 179px; opacity: 0.9;'></div>-70</div><div style='float: left; height: 250px; width: 200px;')></div><div style='position: fixed; bottom: 0;  left: 0%; width:100%; text-align: right'>Draw number: 5 of 5&nbsp<br>Deck number: 4 of 4&nbsp</div><div style='position: fixed; bottom: 50px; left: 0%; width:100%; font-size: 24pt'>Score: 1060</div><div style='position: fixed; font-size: 18pt; padding: 10px; background-color: white; line-height: 1.5; top: 0; left: 50%; transform: translate(-50%, 0); width: 80%; max-width: 1250px; border-style: solid; border-color: red'>This shows the payout from one draw from the deck.<br>Note that this example draw does not contribute to your score.<br><br>  In the experiment this payout disappears after 1 second. During these practice trials press SPACE BAR to move on.</div>","32",1,"forced_outcome",4,-70,-1,"./img/card1.png","","","","","",19,1
"html-keyboard-response",63,155389,"0.0-3.0-0.3-11.3","843.7999999523163","","<div style='float: left; display: flex; justify-content: center; align-items: center; height: 250px; width: 179px; border-style: solid; border-width: 2px; border-color: white; font-size:60px; color:grey; background-color: lightgrey;'')>-40</div><div style='float: left; height: 250px; width: 200px;')></div><div style='float: left; border-style: solid; border-width: 2px; border-color: white; height: 250px; width: 179px;background-image: url(./img/card1.png); height: 250px; width: 179px;')></div><div style='position: fixed; font-size: 18pt; padding: 10px; background-color: white; line-height: 1.5; top: 0; left: 50%; transform: translate(-50%, 0); width: 80%; max-width: 1250px; border-style: solid; border-color: red'>Now you have a choice.  Do you want to draw another card from the deck and get a random payout (which will be similar to the example draws you just made), or do you want a known offer for sure? <br><br>Note that the payout your receive from this choice contributes to your score. <br><br>Press F or J to choose left or right</div><div style='position: fixed; bottom: 0;  left: 0%; width:100%; text-align: right'>Choice&nbsp<br>Deck number: 4 of 4&nbsp</div><div style='position: fixed; bottom: 50px; left: 0%; width:100%; font-size: 24pt'>Score: 1060</div>","70",1,"choice_down",4,-1,0,"./img/card1.png",-1,-1,FALSE,-40,"",19,1
"html-keyboard-response",64,158499,"0.0-3.0-0.3-12.3","3106.8000000715256","","<div style='float: left; display: flex; justify-content: center; align-items: center; height: 250px; width: 179px; border-style: solid; border-width: 2px; border-color: black; font-size:60px;'')>-40</div><div style='float: left; height: 250px; width: 200px;')></div><div style='float: left; border-style: solid; border-width: 2px; border-color: white; height: 250px; width: 179px;background-image: url(./img/card1.png); height: 250px; width: 179px;')></div><div style='position: fixed; font-size: 18pt; padding: 10px; background-color: white; line-height: 1.5; top: 0; left: 50%; transform: translate(-50%, 0); width: 80%; max-width: 1250px; border-style: solid; border-color: red'>You chose the known outcome and earned -40 points. In the experiment this outcome will show for 1 second.  In this practice game please press SPACE BAR to continue.</div><div style='position: fixed; bottom: 0;  left: 0%; width:100%; text-align: right'>Choice&nbsp<br>Deck number: 4 of 4&nbsp</div><div style='position: fixed; bottom: 50px; left: 0%; width:100%; font-size: 24pt'>Score: 1020</div>","32",1,"choice_outcome",4,-1,0,"./img/card1.png","","","","",-40,19,1
"html-keyboard-response",65,165937,"0.0-4.0","7437.100000023842","","<div style='position: fixed; font-size: 18pt; padding: 10px; background-color: white; line-height: 1.5; top: 0; left: 50%; transform: translate(-50%, 0); width: 80%; max-width: 1250px; border-style: solid; border-color: red'>Hopefully that all makes sense.  <br><br>You press SPACE BAR to draw from the deck 5 times and then F or J to make your choice.  Try to earn the most points you can!  <br><br>Press SPACE BAR to start the game.</div>","32","","","","","","","","","","","",19,1
"html-keyboard-response",66,166944,"0.0-5.0-0.0-0.0","null","","<div style='position: fixed; font-size:60px; top: 10%; left: 50%; transform: translate(-50%, 0); width: 80%; max-width: 800px; '>New Deck</div><div style='float: left; border-style: solid; border-width: 2px; border-color: white; height: 250px; width: 179px;background-image: url(./img/card1.png); height: 250px; width: 179px;')></div><div style='position: fixed; bottom: 0;  left: 0%; width:100%; text-align: right'>Draw number: 0 of 5&nbsp<br>Deck number: 1 of 100&nbsp</div><div style='position: fixed; bottom: 50px; left: 0%; width:100%; font-size: 24pt'>Score: 1000</div>","null",1,"NewDeck",1,"","","","","","","","",19,1
"html-keyboard-response",67,167798,"0.0-5.0-0.0-1.0","851.3999999761581","","<div style='float: left; height: 250px; width: 200px;')></div><div style='float: left; border-style: solid; border-width: 2px; border-color: white; height: 250px; width: 179px;background-image: url(./img/card1.png); height: 250px; width: 179px;')></div><div style='float: left; height: 250px; width: 200px;')></div><div style='position: fixed; font-size: 18pt; padding: 10px; background-color: white; line-height: 1.5; top: 0; left: 50%; transform: translate(-50%, 0); width: 80%; max-width: 1250px; border-style: solid; border-color: white'>Press SPACE BAR to draw one card.</div><div style='position: fixed; bottom: 0;  left: 0%; width:100%; text-align: right'>Draw number: 0 of 5&nbsp<br>Deck number: 1 of 100&nbsp</div><div style='position: fixed; bottom: 50px; left: 0%; width:100%; font-size: 24pt'>Score: 1000</div>","32",1,"forced_down",1,-100,-1,"","","","","","",19,1
"html-keyboard-response",68,168807,"0.0-5.0-0.0-2.0","null","","<div style='float: left; height: 250px; width: 200px;')></div><div style='float: left;z-index: 1; display: flex; justify-content: center; align-items: center; height: 250px; width: 179px; border-style: solid; border-style: solid; border-width: 2px; border-color: white; font-size:60px;'><div style='position: absolute; z-index: -1; background-image: url(./img/card2.png); height: 250px; width: 179px; opacity: 0.9;'></div>+100</div><div style='float: left; height: 250px; width: 200px;')></div><div style='position: fixed; bottom: 0;  left: 0%; width:100%; text-align: right'>Draw number: 1 of 5&nbsp<br>Deck number: 1 of 100&nbsp</div><div style='position: fixed; bottom: 50px; left: 0%; width:100%; font-size: 24pt'>Score: 1000</div>","null",1,"forced_outcome",1,100,-1,"./img/card1.png","","","","","",19,1
"html-keyboard-response",69,169966,"0.0-5.0-0.0-3.0","1156.3999999761581","","<div style='float: left; height: 250px; width: 200px;')></div><div style='float: left; border-style: solid; border-width: 2px; border-color: white; height: 250px; width: 179px;background-image: url(./img/card1.png); height: 250px; width: 179px;')></div><div style='float: left; height: 250px; width: 200px;')></div><div style='position: fixed; font-size: 18pt; padding: 10px; background-color: white; line-height: 1.5; top: 0; left: 50%; transform: translate(-50%, 0); width: 80%; max-width: 1250px; border-style: solid; border-color: white'>Press SPACE BAR to draw one card.</div><div style='position: fixed; bottom: 0;  left: 0%; width:100%; text-align: right'>Draw number: 1 of 5&nbsp<br>Deck number: 1 of 100&nbsp</div><div style='position: fixed; bottom: 50px; left: 0%; width:100%; font-size: 24pt'>Score: 1000</div>","32",1,"forced_down",1,-100,-1,"","","","","","",19,1
"html-keyboard-response",70,170972,"0.0-5.0-0.0-4.0","null","","<div style='float: left; height: 250px; width: 200px;')></div><div style='float: left;z-index: 1; display: flex; justify-content: center; align-items: center; height: 250px; width: 179px; border-style: solid; border-style: solid; border-width: 2px; border-color: white; font-size:60px;'><div style='position: absolute; z-index: -1; background-image: url(./img/card2.png); height: 250px; width: 179px; opacity: 0.9;'></div>+100</div><div style='float: left; height: 250px; width: 200px;')></div><div style='position: fixed; bottom: 0;  left: 0%; width:100%; text-align: right'>Draw number: 2 of 5&nbsp<br>Deck number: 1 of 100&nbsp</div><div style='position: fixed; bottom: 50px; left: 0%; width:100%; font-size: 24pt'>Score: 1000</div>","null",1,"forced_outcome",1,100,-1,"./img/card1.png","","","","","",19,1
"html-keyboard-response",71,171577,"0.0-5.0-0.0-5.0","603.0999999046326","","<div style='float: left; height: 250px; width: 200px;')></div><div style='float: left; border-style: solid; border-width: 2px; border-color: white; height: 250px; width: 179px;background-image: url(./img/card1.png); height: 250px; width: 179px;')></div><div style='float: left; height: 250px; width: 200px;')></div><div style='position: fixed; font-size: 18pt; padding: 10px; background-color: white; line-height: 1.5; top: 0; left: 50%; transform: translate(-50%, 0); width: 80%; max-width: 1250px; border-style: solid; border-color: white'>Press SPACE BAR to draw one card.</div><div style='position: fixed; bottom: 0;  left: 0%; width:100%; text-align: right'>Draw number: 2 of 5&nbsp<br>Deck number: 1 of 100&nbsp</div><div style='position: fixed; bottom: 50px; left: 0%; width:100%; font-size: 24pt'>Score: 1000</div>","32",1,"forced_down",1,-100,-1,"","","","","","",19,1
"html-keyboard-response",72,172582,"0.0-5.0-0.0-6.0","null","","<div style='float: left; height: 250px; width: 200px;')></div><div style='float: left;z-index: 1; display: flex; justify-content: center; align-items: center; height: 250px; width: 179px; border-style: solid; border-style: solid; border-width: 2px; border-color: white; font-size:60px;'><div style='position: absolute; z-index: -1; background-image: url(./img/card2.png); height: 250px; width: 179px; opacity: 0.9;'></div>+80</div><div style='float: left; height: 250px; width: 200px;')></div><div style='position: fixed; bottom: 0;  left: 0%; width:100%; text-align: right'>Draw number: 3 of 5&nbsp<br>Deck number: 1 of 100&nbsp</div><div style='position: fixed; bottom: 50px; left: 0%; width:100%; font-size: 24pt'>Score: 1000</div>","null",1,"forced_outcome",1,80,-1,"./img/card1.png","","","","","",19,1
"html-keyboard-response",73,173143,"0.0-5.0-0.0-7.0","558.2000000476837","","<div style='float: left; height: 250px; width: 200px;')></div><div style='float: left; border-style: solid; border-width: 2px; border-color: white; height: 250px; width: 179px;background-image: url(./img/card1.png); height: 250px; width: 179px;')></div><div style='float: left; height: 250px; width: 200px;')></div><div style='position: fixed; font-size: 18pt; padding: 10px; background-color: white; line-height: 1.5; top: 0; left: 50%; transform: translate(-50%, 0); width: 80%; max-width: 1250px; border-style: solid; border-color: white'>Press SPACE BAR to draw one card.</div><div style='position: fixed; bottom: 0;  left: 0%; width:100%; text-align: right'>Draw number: 3 of 5&nbsp<br>Deck number: 1 of 100&nbsp</div><div style='position: fixed; bottom: 50px; left: 0%; width:100%; font-size: 24pt'>Score: 1000</div>","32",1,"forced_down",1,-100,-1,"","","","","","",19,1
"html-keyboard-response",74,174152,"0.0-5.0-0.0-8.0","null","","<div style='float: left; height: 250px; width: 200px;')></div><div style='float: left;z-index: 1; display: flex; justify-content: center; align-items: center; height: 250px; width: 179px; border-style: solid; border-style: solid; border-width: 2px; border-color: white; font-size:60px;'><div style='position: absolute; z-index: -1; background-image: url(./img/card2.png); height: 250px; width: 179px; opacity: 0.9;'></div>+120</div><div style='float: left; height: 250px; width: 200px;')></div><div style='position: fixed; bottom: 0;  left: 0%; width:100%; text-align: right'>Draw number: 4 of 5&nbsp<br>Deck number: 1 of 100&nbsp</div><div style='position: fixed; bottom: 50px; left: 0%; width:100%; font-size: 24pt'>Score: 1000</div>","null",1,"forced_outcome",1,120,-1,"./img/card1.png","","","","","",19,1
"html-keyboard-response",75,174641,"0.0-5.0-0.0-9.0","487.39999997615814","","<div style='float: left; height: 250px; width: 200px;')></div><div style='float: left; border-style: solid; border-width: 2px; border-color: white; height: 250px; width: 179px;background-image: url(./img/card1.png); height: 250px; width: 179px;')></div><div style='float: left; height: 250px; width: 200px;')></div><div style='position: fixed; font-size: 18pt; padding: 10px; background-color: white; line-height: 1.5; top: 0; left: 50%; transform: translate(-50%, 0); width: 80%; max-width: 1250px; border-style: solid; border-color: white'>Press SPACE BAR to draw one card.</div><div style='position: fixed; bottom: 0;  left: 0%; width:100%; text-align: right'>Draw number: 4 of 5&nbsp<br>Deck number: 1 of 100&nbsp</div><div style='position: fixed; bottom: 50px; left: 0%; width:100%; font-size: 24pt'>Score: 1000</div>","32",1,"forced_down",1,-100,-1,"","","","","","",19,1
"html-keyboard-response",76,175648,"0.0-5.0-0.0-10.0","null","","<div style='float: left; height: 250px; width: 200px;')></div><div style='float: left;z-index: 1; display: flex; justify-content: center; align-items: center; height: 250px; width: 179px; border-style: solid; border-style: solid; border-width: 2px; border-color: white; font-size:60px;'><div style='position: absolute; z-index: -1; background-image: url(./img/card2.png); height: 250px; width: 179px; opacity: 0.9;'></div>+100</div><div style='float: left; height: 250px; width: 200px;')></div><div style='position: fixed; bottom: 0;  left: 0%; width:100%; text-align: right'>Draw number: 5 of 5&nbsp<br>Deck number: 1 of 100&nbsp</div><div style='position: fixed; bottom: 50px; left: 0%; width:100%; font-size: 24pt'>Score: 1000</div>","null",1,"forced_outcome",1,100,-1,"./img/card1.png","","","","","",19,1
"html-keyboard-response",77,178308,"0.0-5.0-0.0-11.0","2656.600000023842","","<div style='float: left; border-style: solid; border-width: 2px; border-color: white; height: 250px; width: 179px;background-image: url(./img/card1.png); height: 250px; width: 179px;')></div><div style='float: left; height: 250px; width: 200px;')></div><div style='float: left; display: flex; justify-content: center; align-items: center; height: 250px; width: 179px; border-style: solid; border-width: 2px; border-color: white; font-size:60px; color:grey; background-color: lightgrey;'')>+50</div><div style='position: fixed; font-size: 18pt; padding: 10px; background-color: white; line-height: 1.5; top: 0; left: 50%; transform: translate(-50%, 0); width: 80%; max-width: 1250px; border-style: solid; border-color: white'>Do you want another draw from the deck or 50 points for sure?<br><br>Press F to choose left, J to choose right</div><div style='position: fixed; bottom: 0;  left: 0%; width:100%; text-align: right'>Choice&nbsp<br>Deck number: 1 of 100&nbsp</div><div style='position: fixed; bottom: 50px; left: 0%; width:100%; font-size: 24pt'>Score: 1000</div>","70",1,"choice_down",1,-1,1,"./img/card1.png",-1,-1,TRUE,50,"",19,1
"html-keyboard-response",78,179313,"0.0-5.0-0.0-12.0","null","","<div style='float: left;z-index: 1; display: flex; justify-content: center; align-items: center; height: 250px; width: 179px; border-style: solid; border-style: solid; border-width: 2px; border-color: white; font-size:60px;'><div style='position: absolute; z-index: -1; background-image: url(./img/card2.png); height: 250px; width: 179px; opacity: 0.9;'></div>+130</div><div style='float: left; height: 250px; width: 200px;')></div><div style='float: left; display: flex; justify-content: center; align-items: center; height: 250px; width: 179px; border-style: solid; border-width: 2px; border-color: white; font-size:60px; color:grey; background-color: lightgrey;'')>+50</div><div style='position: fixed; bottom: 0;  left: 0%; width:100%; text-align: right'>Choice&nbsp<br>Deck number: 1 of 100&nbsp</div><div style='position: fixed; bottom: 50px; left: 0%; width:100%; font-size: 24pt'>Score: 1130</div>","null",1,"choice_outcome",1,-1,1,"./img/card2.png","","","","",130,19,1
"html-keyboard-response",79,180318,"0.0-5.0-0.1-0.1","null","","<div style='position: fixed; font-size:60px; top: 10%; left: 50%; transform: translate(-50%, 0); width: 80%; max-width: 800px; '>New Deck</div><div style='float: left; border-style: solid; border-width: 2px; border-color: white; height: 250px; width: 179px;background-image: url(./img/card1.png); height: 250px; width: 179px;')></div><div style='position: fixed; bottom: 0;  left: 0%; width:100%; text-align: right'>Draw number: 0 of 5&nbsp<br>Deck number: 2 of 100&nbsp</div><div style='position: fixed; bottom: 50px; left: 0%; width:100%; font-size: 24pt'>Score: 1130</div>","null",1,"NewDeck",2,"","","","","","","","",19,1
"html-keyboard-response",80,181026,"0.0-5.0-0.1-1.1","706.2000000476837","","<div style='float: left; height: 250px; width: 200px;')></div><div style='float: left; border-style: solid; border-width: 2px; border-color: white; height: 250px; width: 179px;background-image: url(./img/card1.png); height: 250px; width: 179px;')></div><div style='float: left; height: 250px; width: 200px;')></div><div style='position: fixed; font-size: 18pt; padding: 10px; background-color: white; line-height: 1.5; top: 0; left: 50%; transform: translate(-50%, 0); width: 80%; max-width: 1250px; border-style: solid; border-color: white'>Press SPACE BAR to draw one card.</div><div style='position: fixed; bottom: 0;  left: 0%; width:100%; text-align: right'>Draw number: 0 of 5&nbsp<br>Deck number: 2 of 100&nbsp</div><div style='position: fixed; bottom: 50px; left: 0%; width:100%; font-size: 24pt'>Score: 1130</div>","32",1,"forced_down",2,-100,-1,"","","","","","",19,1
"html-keyboard-response",81,182029,"0.0-5.0-0.1-2.1","null","","<div style='float: left; height: 250px; width: 200px;')></div><div style='float: left;z-index: 1; display: flex; justify-content: center; align-items: center; height: 250px; width: 179px; border-style: solid; border-style: solid; border-width: 2px; border-color: white; font-size:60px;'><div style='position: absolute; z-index: -1; background-image: url(./img/card2.png); height: 250px; width: 179px; opacity: 0.9;'></div>+110</div><div style='float: left; height: 250px; width: 200px;')></div><div style='position: fixed; bottom: 0;  left: 0%; width:100%; text-align: right'>Draw number: 1 of 5&nbsp<br>Deck number: 2 of 100&nbsp</div><div style='position: fixed; bottom: 50px; left: 0%; width:100%; font-size: 24pt'>Score: 1130</div>","null",1,"forced_outcome",2,110,-1,"./img/card1.png","","","","","",19,1
"html-keyboard-response",82,182530,"0.0-5.0-0.1-3.1","498.90000009536743","","<div style='float: left; height: 250px; width: 200px;')></div><div style='float: left; border-style: solid; border-width: 2px; border-color: white; height: 250px; width: 179px;background-image: url(./img/card1.png); height: 250px; width: 179px;')></div><div style='float: left; height: 250px; width: 200px;')></div><div style='position: fixed; font-size: 18pt; padding: 10px; background-color: white; line-height: 1.5; top: 0; left: 50%; transform: translate(-50%, 0); width: 80%; max-width: 1250px; border-style: solid; border-color: white'>Press SPACE BAR to draw one card.</div><div style='position: fixed; bottom: 0;  left: 0%; width:100%; text-align: right'>Draw number: 1 of 5&nbsp<br>Deck number: 2 of 100&nbsp</div><div style='position: fixed; bottom: 50px; left: 0%; width:100%; font-size: 24pt'>Score: 1130</div>","32",1,"forced_down",2,-100,-1,"","","","","","",19,1
"html-keyboard-response",83,183538,"0.0-5.0-0.1-4.1","null","","<div style='float: left; height: 250px; width: 200px;')></div><div style='float: left;z-index: 1; display: flex; justify-content: center; align-items: center; height: 250px; width: 179px; border-style: solid; border-style: solid; border-width: 2px; border-color: white; font-size:60px;'><div style='position: absolute; z-index: -1; background-image: url(./img/card2.png); height: 250px; width: 179px; opacity: 0.9;'></div>+90</div><div style='float: left; height: 250px; width: 200px;')></div><div style='position: fixed; bottom: 0;  left: 0%; width:100%; text-align: right'>Draw number: 2 of 5&nbsp<br>Deck number: 2 of 100&nbsp</div><div style='position: fixed; bottom: 50px; left: 0%; width:100%; font-size: 24pt'>Score: 1130</div>","null",1,"forced_outcome",2,90,-1,"./img/card1.png","","","","","",19,1
"html-keyboard-response",84,183837,"0.0-5.0-0.1-5.1","297.10000002384186","","<div style='float: left; height: 250px; width: 200px;')></div><div style='float: left; border-style: solid; border-width: 2px; border-color: white; height: 250px; width: 179px;background-image: url(./img/card1.png); height: 250px; width: 179px;')></div><div style='float: left; height: 250px; width: 200px;')></div><div style='position: fixed; font-size: 18pt; padding: 10px; background-color: white; line-height: 1.5; top: 0; left: 50%; transform: translate(-50%, 0); width: 80%; max-width: 1250px; border-style: solid; border-color: white'>Press SPACE BAR to draw one card.</div><div style='position: fixed; bottom: 0;  left: 0%; width:100%; text-align: right'>Draw number: 2 of 5&nbsp<br>Deck number: 2 of 100&nbsp</div><div style='position: fixed; bottom: 50px; left: 0%; width:100%; font-size: 24pt'>Score: 1130</div>","32",1,"forced_down",2,-100,-1,"","","","","","",19,1
"html-keyboard-response",85,184840,"0.0-5.0-0.1-6.1","null","","<div style='float: left; height: 250px; width: 200px;')></div><div style='float: left;z-index: 1; display: flex; justify-content: center; align-items: center; height: 250px; width: 179px; border-style: solid; border-style: solid; border-width: 2px; border-color: white; font-size:60px;'><div style='position: absolute; z-index: -1; background-image: url(./img/card2.png); height: 250px; width: 179px; opacity: 0.9;'></div>+80</div><div style='float: left; height: 250px; width: 200px;')></div><div style='position: fixed; bottom: 0;  left: 0%; width:100%; text-align: right'>Draw number: 3 of 5&nbsp<br>Deck number: 2 of 100&nbsp</div><div style='position: fixed; bottom: 50px; left: 0%; width:100%; font-size: 24pt'>Score: 1130</div>","null",1,"forced_outcome",2,80,-1,"./img/card1.png","","","","","",19,1
"html-keyboard-response",86,185223,"0.0-5.0-0.1-7.1","381.10000002384186","","<div style='float: left; height: 250px; width: 200px;')></div><div style='float: left; border-style: solid; border-width: 2px; border-color: white; height: 250px; width: 179px;background-image: url(./img/card1.png); height: 250px; width: 179px;')></div><div style='float: left; height: 250px; width: 200px;')></div><div style='position: fixed; font-size: 18pt; padding: 10px; background-color: white; line-height: 1.5; top: 0; left: 50%; transform: translate(-50%, 0); width: 80%; max-width: 1250px; border-style: solid; border-color: white'>Press SPACE BAR to draw one card.</div><div style='position: fixed; bottom: 0;  left: 0%; width:100%; text-align: right'>Draw number: 3 of 5&nbsp<br>Deck number: 2 of 100&nbsp</div><div style='position: fixed; bottom: 50px; left: 0%; width:100%; font-size: 24pt'>Score: 1130</div>","32",1,"forced_down",2,-100,-1,"","","","","","",19,1
"html-keyboard-response",87,186232,"0.0-5.0-0.1-8.1","null","","<div style='float: left; height: 250px; width: 200px;')></div><div style='float: left;z-index: 1; display: flex; justify-content: center; align-items: center; height: 250px; width: 179px; border-style: solid; border-style: solid; border-width: 2px; border-color: white; font-size:60px;'><div style='position: absolute; z-index: -1; background-image: url(./img/card2.png); height: 250px; width: 179px; opacity: 0.9;'></div>+90</div><div style='float: left; height: 250px; width: 200px;')></div><div style='position: fixed; bottom: 0;  left: 0%; width:100%; text-align: right'>Draw number: 4 of 5&nbsp<br>Deck number: 2 of 100&nbsp</div><div style='position: fixed; bottom: 50px; left: 0%; width:100%; font-size: 24pt'>Score: 1130</div>","null",1,"forced_outcome",2,90,-1,"./img/card1.png","","","","","",19,1
"html-keyboard-response",88,186773,"0.0-5.0-0.1-9.1","538.8999999761581","","<div style='float: left; height: 250px; width: 200px;')></div><div style='float: left; border-style: solid; border-width: 2px; border-color: white; height: 250px; width: 179px;background-image: url(./img/card1.png); height: 250px; width: 179px;')></div><div style='float: left; height: 250px; width: 200px;')></div><div style='position: fixed; font-size: 18pt; padding: 10px; background-color: white; line-height: 1.5; top: 0; left: 50%; transform: translate(-50%, 0); width: 80%; max-width: 1250px; border-style: solid; border-color: white'>Press SPACE BAR to draw one card.</div><div style='position: fixed; bottom: 0;  left: 0%; width:100%; text-align: right'>Draw number: 4 of 5&nbsp<br>Deck number: 2 of 100&nbsp</div><div style='position: fixed; bottom: 50px; left: 0%; width:100%; font-size: 24pt'>Score: 1130</div>","32",1,"forced_down",2,-100,-1,"","","","","","",19,1
"html-keyboard-response",89,187781,"0.0-5.0-0.1-10.1","null","","<div style='float: left; height: 250px; width: 200px;')></div><div style='float: left;z-index: 1; display: flex; justify-content: center; align-items: center; height: 250px; width: 179px; border-style: solid; border-style: solid; border-width: 2px; border-color: white; font-size:60px;'><div style='position: absolute; z-index: -1; background-image: url(./img/card2.png); height: 250px; width: 179px; opacity: 0.9;'></div>+90</div><div style='float: left; height: 250px; width: 200px;')></div><div style='position: fixed; bottom: 0;  left: 0%; width:100%; text-align: right'>Draw number: 5 of 5&nbsp<br>Deck number: 2 of 100&nbsp</div><div style='position: fixed; bottom: 50px; left: 0%; width:100%; font-size: 24pt'>Score: 1130</div>","null",1,"forced_outcome",2,90,-1,"./img/card1.png","","","","","",19,1
"html-keyboard-response",90,190184,"0.0-5.0-0.1-11.1","2400.100000023842","","<div style='float: left; display: flex; justify-content: center; align-items: center; height: 250px; width: 179px; border-style: solid; border-width: 2px; border-color: white; font-size:60px; color:grey; background-color: lightgrey;'')>-30</div><div style='float: left; height: 250px; width: 200px;')></div><div style='float: left; border-style: solid; border-width: 2px; border-color: white; height: 250px; width: 179px;background-image: url(./img/card1.png); height: 250px; width: 179px;')></div><div style='position: fixed; font-size: 18pt; padding: 10px; background-color: white; line-height: 1.5; top: 0; left: 50%; transform: translate(-50%, 0); width: 80%; max-width: 1250px; border-style: solid; border-color: white'>Do you want another draw from the deck or -30 points for sure?<br><br>Press F to choose left, J to choose right</div><div style='position: fixed; bottom: 0;  left: 0%; width:100%; text-align: right'>Choice&nbsp<br>Deck number: 2 of 100&nbsp</div><div style='position: fixed; bottom: 50px; left: 0%; width:100%; font-size: 24pt'>Score: 1130</div>","74",1,"choice_down",2,-1,0,"./img/card1.png",-1,-1,TRUE,-30,"",19,1
"html-keyboard-response",91,191194,"0.0-5.0-0.1-12.1","null","","<div style='float: left; display: flex; justify-content: center; align-items: center; height: 250px; width: 179px; border-style: solid; border-width: 2px; border-color: white; font-size:60px; color:grey; background-color: lightgrey;'')>-30</div><div style='float: left; height: 250px; width: 200px;')></div><div style='float: left;z-index: 1; display: flex; justify-content: center; align-items: center; height: 250px; width: 179px; border-style: solid; border-style: solid; border-width: 2px; border-color: white; font-size:60px;'><div style='position: absolute; z-index: -1; background-image: url(./img/card2.png); height: 250px; width: 179px; opacity: 0.9;'></div>+110</div><div style='position: fixed; bottom: 0;  left: 0%; width:100%; text-align: right'>Choice&nbsp<br>Deck number: 2 of 100&nbsp</div><div style='position: fixed; bottom: 50px; left: 0%; width:100%; font-size: 24pt'>Score: 1240</div>","null",1,"choice_outcome",2,-1,0,"./img/card2.png","","","","",110,19,1
"html-keyboard-response",92,192197,"0.0-5.0-0.2-0.2","null","","<div style='position: fixed; font-size:60px; top: 10%; left: 50%; transform: translate(-50%, 0); width: 80%; max-width: 800px; '>New Deck</div><div style='float: left; border-style: solid; border-width: 2px; border-color: white; height: 250px; width: 179px;background-image: url(./img/card1.png); height: 250px; width: 179px;')></div><div style='position: fixed; bottom: 0;  left: 0%; width:100%; text-align: right'>Draw number: 0 of 5&nbsp<br>Deck number: 3 of 100&nbsp</div><div style='position: fixed; bottom: 50px; left: 0%; width:100%; font-size: 24pt'>Score: 1240</div>","null",1,"NewDeck",3,"","","","","","","","",19,1
"html-keyboard-response",93,192870,"0.0-5.0-0.2-1.2","670.8999999761581","","<div style='float: left; height: 250px; width: 200px;')></div><div style='float: left; border-style: solid; border-width: 2px; border-color: white; height: 250px; width: 179px;background-image: url(./img/card1.png); height: 250px; width: 179px;')></div><div style='float: left; height: 250px; width: 200px;')></div><div style='position: fixed; font-size: 18pt; padding: 10px; background-color: white; line-height: 1.5; top: 0; left: 50%; transform: translate(-50%, 0); width: 80%; max-width: 1250px; border-style: solid; border-color: white'>Press SPACE BAR to draw one card.</div><div style='position: fixed; bottom: 0;  left: 0%; width:100%; text-align: right'>Draw number: 0 of 5&nbsp<br>Deck number: 3 of 100&nbsp</div><div style='position: fixed; bottom: 50px; left: 0%; width:100%; font-size: 24pt'>Score: 1240</div>","32",1,"forced_down",3,-100,-1,"","","","","","",19,1
"html-keyboard-response",94,193875,"0.0-5.0-0.2-2.2","null","","<div style='float: left; height: 250px; width: 200px;')></div><div style='float: left;z-index: 1; display: flex; justify-content: center; align-items: center; height: 250px; width: 179px; border-style: solid; border-style: solid; border-width: 2px; border-color: white; font-size:60px;'><div style='position: absolute; z-index: -1; background-image: url(./img/card2.png); height: 250px; width: 179px; opacity: 0.9;'></div>+160</div><div style='float: left; height: 250px; width: 200px;')></div><div style='position: fixed; bottom: 0;  left: 0%; width:100%; text-align: right'>Draw number: 1 of 5&nbsp<br>Deck number: 3 of 100&nbsp</div><div style='position: fixed; bottom: 50px; left: 0%; width:100%; font-size: 24pt'>Score: 1240</div>","null",1,"forced_outcome",3,160,-1,"./img/card1.png","","","","","",19,1
"html-keyboard-response",95,194317,"0.0-5.0-0.2-3.2","439.10000002384186","","<div style='float: left; height: 250px; width: 200px;')></div><div style='float: left; border-style: solid; border-width: 2px; border-color: white; height: 250px; width: 179px;background-image: url(./img/card1.png); height: 250px; width: 179px;')></div><div style='float: left; height: 250px; width: 200px;')></div><div style='position: fixed; font-size: 18pt; padding: 10px; background-color: white; line-height: 1.5; top: 0; left: 50%; transform: translate(-50%, 0); width: 80%; max-width: 1250px; border-style: solid; border-color: white'>Press SPACE BAR to draw one card.</div><div style='position: fixed; bottom: 0;  left: 0%; width:100%; text-align: right'>Draw number: 1 of 5&nbsp<br>Deck number: 3 of 100&nbsp</div><div style='position: fixed; bottom: 50px; left: 0%; width:100%; font-size: 24pt'>Score: 1240</div>","32",1,"forced_down",3,-100,-1,"","","","","","",19,1
"html-keyboard-response",96,195319,"0.0-5.0-0.2-4.2","null","","<div style='float: left; height: 250px; width: 200px;')></div><div style='float: left;z-index: 1; display: flex; justify-content: center; align-items: center; height: 250px; width: 179px; border-style: solid; border-style: solid; border-width: 2px; border-color: white; font-size:60px;'><div style='position: absolute; z-index: -1; background-image: url(./img/card2.png); height: 250px; width: 179px; opacity: 0.9;'></div>+150</div><div style='float: left; height: 250px; width: 200px;')></div><div style='position: fixed; bottom: 0;  left: 0%; width:100%; text-align: right'>Draw number: 2 of 5&nbsp<br>Deck number: 3 of 100&nbsp</div><div style='position: fixed; bottom: 50px; left: 0%; width:100%; font-size: 24pt'>Score: 1240</div>","null",1,"forced_outcome",3,150,-1,"./img/card1.png","","","","","",19,1
