"trial_type","trial_index","time_elapsed","internal_node_id","rt","responses","stimulus","key_press","block","type","counter","reward","side","card","mean","sigma","choseDeck","offer","reward_on_choice","age","gender"
"pavlovia",0,2,"0.0-0.0","","","","","","","","","","","","","","","",19,1
"survey-text",1,2591,"0.0-1.0","2582.5","{""""Start"""":""""""""}","","","","","","","","","","","","","",19,1
"html-keyboard-response",2,5030,"0.0-2.0-0.0","2438.699999988079","","<div style='position: fixed; font-size: 18pt; padding: 10px; background-color: white; line-height: 1.5; top: 0; left: 50%; transform: translate(-50%, 0); width: 80%; max-width: 1250px; border-style: solid; border-color: red'>Welcome to the experiment!<br><br>[press any key to continue]</div>","72","","","","","","","","","","","",19,1
"html-keyboard-response",3,5031,"0.0-2.0-1.0","0.40000003576278687","","<div style='position: fixed; font-size: 18pt; padding: 10px; background-color: white; line-height: 1.5; top: 0; left: 50%; transform: translate(-50%, 0); width: 80%; max-width: 1250px; border-style: solid; border-color: red'>In this experiment you will make decisions about whether to draw a card to get a variable payout or take a sure-thing payout.<br><br>[press any key to continue]</div>","71","","","","","","","","","","","",19,1
"html-keyboard-response",4,40035,"0.0-2.0-2.0","35002.5","","<div style='position: fixed; font-size: 18pt; padding: 10px; background-color: white; line-height: 1.5; top: 0; left: 50%; transform: translate(-50%, 0); width: 80%; max-width: 1250px; border-style: solid; border-color: red'>Here is what your choice might look like. On the left is a deck of cards that has variable payouts and on the right a sure-thing offer of 100 points.<br><br>[press any key to continue]</div><div style='float: left; border-style: solid; border-width: 2px; border-color: white; height: 250px; width: 179px;background-image: url(./img/card1.png); height: 250px; width: 179px;')></div><div style='float: left; height: 250px; width: 200px;')></div><div style='float: left; display: flex; justify-content: center; align-items: center; height: 250px; width: 179px; border-style: solid; border-width: 2px; border-color: white; font-size:60px; color:grey; background-color: lightgrey;'')>+100</div>","84","","","","","","","","","","","",19,1
"html-keyboard-response",5,40036,"0.0-2.0-3.0","0.30000001192092896","","<div style='position: fixed; font-size: 18pt; padding: 10px; background-color: white; line-height: 1.5; top: 0; left: 50%; transform: translate(-50%, 0); width: 80%; max-width: 1250px; border-style: solid; border-color: red'>You will press the 'F' key to choose the left-side option (deck). <br>You will press the 'J' key to choose the right-side option (sure-thing offer).<br><br>[press any key to continue]</div><div style='float: left; border-style: solid; border-width: 2px; border-color: white; height: 250px; width: 179px;background-image: url(./img/card1.png); height: 250px; width: 179px;')></div><div style='float: left; height: 250px; width: 200px;')></div><div style='float: left; display: flex; justify-content: center; align-items: center; height: 250px; width: 179px; border-style: solid; border-width: 2px; border-color: white; font-size:60px; color:grey; background-color: lightgrey;'')>+100</div>","82","","","","","","","","","","","",19,1
"html-keyboard-response",6,43682,"0.0-2.0-4.0","3645.899999976158","","<div style='position: fixed; font-size: 18pt; padding: 10px; background-color: white; line-height: 1.5; top: 0; left: 50%; transform: translate(-50%, 0); width: 80%; max-width: 1250px; border-style: solid; border-color: red'>If you choose the deck, you will get that card's hidden offer. <br><br>The offer could be a positive or negative.  <br><br>[press any key to continue]</div><div style='float: left; border-style: solid; border-width: 2px; border-color: white; height: 250px; width: 179px;background-image: url(./img/card1.png); height: 250px; width: 179px;')></div><div style='float: left; height: 250px; width: 200px;')></div><div style='float: left; display: flex; justify-content: center; align-items: center; height: 250px; width: 179px; border-style: solid; border-width: 2px; border-color: white; font-size:60px; color:grey; background-color: lightgrey;'')>+100</div>","82","","","","","","","","","","","",19,1
"html-keyboard-response",7,47114,"0.0-2.0-5.0","3431.699999988079","","<div style='position: fixed; font-size: 18pt; padding: 10px; background-color: white; line-height: 1.5; top: 0; left: 50%; transform: translate(-50%, 0); width: 80%; max-width: 1250px; border-style: solid; border-color: red'>In this case the hidden card was worth +200 points, so the variable deck was a better than the sure-thing. <br><br>[press any key to continue]</div><div style='float: left; display: flex; justify-content: center; align-items: center; height: 250px; width: 179px; border-style: solid; border-width: 2px; border-color: black; font-size:60px;'')>+200</div><div style='float: left; height: 250px; width: 200px;')></div><div style='float: left; display: flex; justify-content: center; align-items: center; height: 250px; width: 179px; border-style: solid; border-width: 2px; border-color: white; font-size:60px; color:grey; background-color: lightgrey;'')>+100</div>","68","","","","","","","","","","","",19,1
"html-keyboard-response",8,50700,"0.0-2.0-6.0","3584.399999976158","","<div style='position: fixed; font-size: 18pt; padding: 10px; background-color: white; line-height: 1.5; top: 0; left: 50%; transform: translate(-50%, 0); width: 80%; max-width: 1250px; border-style: solid; border-color: red'>On this trial, the hidden card was worth -150 points, so the sure-thing was better than the variable deck.<br><br>[press any key to continue]</div><div style='float: left; display: flex; justify-content: center; align-items: center; height: 250px; width: 179px; border-style: solid; border-width: 2px; border-color: black; font-size:60px;'')>-150</div><div style='float: left; height: 250px; width: 200px;')></div><div style='float: left; display: flex; justify-content: center; align-items: center; height: 250px; width: 179px; border-style: solid; border-width: 2px; border-color: white; font-size:60px; color:grey; background-color: lightgrey;'')>+100</div>","68","","","","","","","","","","","",19,1
"html-keyboard-response",9,55091,"0.0-2.0-7.0","4391.300000011921","","<div style='position: fixed; font-size: 18pt; padding: 10px; background-color: white; line-height: 1.5; top: 0; left: 50%; transform: translate(-50%, 0); width: 80%; max-width: 1250px; border-style: solid; border-color: red'>Every decision involves a different deck of cards with variable payouts. <br>Some decks are better on average and some decks are worse on average. <br><br>[press any key to continue]</div>","68","","","","","","","","","","","",19,1
"html-keyboard-response",10,60532,"0.0-2.0-8.0","5440","","<div style='position: fixed; font-size: 18pt; padding: 10px; background-color: white; line-height: 1.5; top: 0; left: 50%; transform: translate(-50%, 0); width: 80%; max-width: 1250px; border-style: solid; border-color: red'>To give you a sense of whether the deck is good or bad, you will be shown 5 cards from each deck before you are asked to choose between the variable deck option and the sure-thing option. <br><br>To see these example cards you will press the SPACE BAR.<br><br>[press any key to continue]</div>","68","","","","","","","","","","","",19,1
"html-keyboard-response",11,70477,"0.0-2.0-9.0","9944.900000035763","","<div style='position: fixed; font-size: 18pt; padding: 10px; background-color: white; line-height: 1.5; top: 0; left: 50%; transform: translate(-50%, 0); width: 80%; max-width: 1250px; border-style: solid; border-color: red'>To help you keep track of how well you are doing, your score will be shown at the bottom of the screen.  <br><br>You will start from 1000 points and can both gain and lose points. <br><br>Note that you will only gain or lose points when you choose between the two options.<br><br>[press any key to continue]</div>","32","","","","","","","","","","","",19,1
"html-keyboard-response",12,79606,"0.0-2.0-10.0","9127.800000011921","","<div style='position: fixed; font-size: 18pt; padding: 10px; background-color: white; line-height: 1.5; top: 0; left: 50%; transform: translate(-50%, 0); width: 80%; max-width: 1250px; border-style: solid; border-color: red'>In the experiment you will make decisions about 180 different decks. This should take about 20-30 minutes to complete. <br><br>When you are ready to begin we will try a few example games to make sure that everything makes sense.<br><br>[press any key to continue]</div>","32","","","","","","","","","","","",19,1
"html-keyboard-response",13,85679,"0.0-3.0-0.0-0.0","6071.799999952316","","<div style='float: left; border-style: solid; border-width: 2px; border-color: white; height: 250px; width: 179px;background-image: url(./img/card1.png); height: 250px; width: 179px;')></div><div style='position: fixed; font-size: 18pt; padding: 10px; background-color: white; line-height: 1.5; top: 0; left: 50%; transform: translate(-50%, 0); width: 80%; max-width: 1250px; border-style: solid; border-color: red'>The words """"New Deck"""" will appear each time there is a new deck with a different average payoff. The task automatically moves on after 1 second.  <br><br>For this practice game, press SPACE BAR to continue.</div><div style='position: fixed; bottom: 0;  left: 0%; width:100%; text-align: right'>Draw number: 0 of 5&nbsp<br>Deck number: 1 of 4&nbsp</div><div style='position: fixed; bottom: 50px; left: 0%; width:100%; font-size: 24pt'>Score: 1000</div>","32",1,"NewDeck",1,"","","","","","","","",19,1
"html-keyboard-response",14,88127,"0.0-3.0-0.0-1.0","2447","","<div style='float: left; height: 250px; width: 200px;')></div><div style='float: left; border-style: solid; border-width: 2px; border-color: white; height: 250px; width: 179px;background-image: url(./img/card1.png); height: 250px; width: 179px;')></div><div style='float: left; height: 250px; width: 200px;')></div><div style='position: fixed; font-size: 18pt; padding: 10px; background-color: white; line-height: 1.5; top: 0; left: 50%; transform: translate(-50%, 0); width: 80%; max-width: 1250px; border-style: solid; border-color: red'>Press SPACE BAR to draw one card from the deck ...</div><div style='position: fixed; bottom: 0;  left: 0%; width:100%; text-align: right'>Draw number: 0 of 5&nbsp<br>Deck number: 1 of 4&nbsp</div><div style='position: fixed; bottom: 50px; left: 0%; width:100%; font-size: 24pt'>Score: 1000</div>","32",1,"forced_down",1,-100,-1,"","","","","","",19,1
"html-keyboard-response",15,96648,"0.0-3.0-0.0-2.0","8519.800000011921","","<div style='float: left; height: 250px; width: 200px;')></div><div style='float: left;z-index: 1; display: flex; justify-content: center; align-items: center; height: 250px; width: 179px; border-style: solid; border-style: solid; border-width: 2px; border-color: white; font-size:60px;'><div style='position: absolute; z-index: -1; background-image: url(./img/card2.png); height: 250px; width: 179px; opacity: 0.9;'></div>+100</div><div style='float: left; height: 250px; width: 200px;')></div><div style='position: fixed; bottom: 0;  left: 0%; width:100%; text-align: right'>Draw number: 1 of 5&nbsp<br>Deck number: 1 of 4&nbsp</div><div style='position: fixed; bottom: 50px; left: 0%; width:100%; font-size: 24pt'>Score: 1000</div><div style='position: fixed; font-size: 18pt; padding: 10px; background-color: white; line-height: 1.5; top: 0; left: 50%; transform: translate(-50%, 0); width: 80%; max-width: 1250px; border-style: solid; border-color: red'>This shows the payout from one draw from the deck.<br>Note that this example draw does not contribute to your score.<br><br>  In the experiment this payout disappears after 1 second. During these practice trials press SPACE BAR to move on.</div>","32",1,"forced_outcome",1,100,-1,"./img/card1.png","","","","","",19,1
"html-keyboard-response",16,98760,"0.0-3.0-0.0-3.0","2111","","<div style='float: left; height: 250px; width: 200px;')></div><div style='float: left; border-style: solid; border-width: 2px; border-color: white; height: 250px; width: 179px;background-image: url(./img/card1.png); height: 250px; width: 179px;')></div><div style='float: left; height: 250px; width: 200px;')></div><div style='position: fixed; font-size: 18pt; padding: 10px; background-color: white; line-height: 1.5; top: 0; left: 50%; transform: translate(-50%, 0); width: 80%; max-width: 1250px; border-style: solid; border-color: red'>Press SPACE BAR to draw one card from the deck ...</div><div style='position: fixed; bottom: 0;  left: 0%; width:100%; text-align: right'>Draw number: 1 of 5&nbsp<br>Deck number: 1 of 4&nbsp</div><div style='position: fixed; bottom: 50px; left: 0%; width:100%; font-size: 24pt'>Score: 1000</div>","32",1,"forced_down",1,-100,-1,"","","","","","",19,1
"html-keyboard-response",17,105593,"0.0-3.0-0.0-4.0","6831.899999976158","","<div style='float: left; height: 250px; width: 200px;')></div><div style='float: left;z-index: 1; display: flex; justify-content: center; align-items: center; height: 250px; width: 179px; border-style: solid; border-style: solid; border-width: 2px; border-color: white; font-size:60px;'><div style='position: absolute; z-index: -1; background-image: url(./img/card2.png); height: 250px; width: 179px; opacity: 0.9;'></div>+70</div><div style='float: left; height: 250px; width: 200px;')></div><div style='position: fixed; bottom: 0;  left: 0%; width:100%; text-align: right'>Draw number: 2 of 5&nbsp<br>Deck number: 1 of 4&nbsp</div><div style='position: fixed; bottom: 50px; left: 0%; width:100%; font-size: 24pt'>Score: 1000</div><div style='position: fixed; font-size: 18pt; padding: 10px; background-color: white; line-height: 1.5; top: 0; left: 50%; transform: translate(-50%, 0); width: 80%; max-width: 1250px; border-style: solid; border-color: red'>This shows the payout from one draw from the deck.<br>Note that this example draw does not contribute to your score.<br><br>  In the experiment this payout disappears after 1 second. During these practice trials press SPACE BAR to move on.</div>","32",1,"forced_outcome",1,70,-1,"./img/card1.png","","","","","",19,1
"html-keyboard-response",18,107210,"0.0-3.0-0.0-5.0","1615.800000011921","","<div style='float: left; height: 250px; width: 200px;')></div><div style='float: left; border-style: solid; border-width: 2px; border-color: white; height: 250px; width: 179px;background-image: url(./img/card1.png); height: 250px; width: 179px;')></div><div style='float: left; height: 250px; width: 200px;')></div><div style='position: fixed; font-size: 18pt; padding: 10px; background-color: white; line-height: 1.5; top: 0; left: 50%; transform: translate(-50%, 0); width: 80%; max-width: 1250px; border-style: solid; border-color: red'>Press SPACE BAR to draw one card from the deck ...</div><div style='position: fixed; bottom: 0;  left: 0%; width:100%; text-align: right'>Draw number: 2 of 5&nbsp<br>Deck number: 1 of 4&nbsp</div><div style='position: fixed; bottom: 50px; left: 0%; width:100%; font-size: 24pt'>Score: 1000</div>","32",1,"forced_down",1,-100,-1,"","","","","","",19,1
"html-keyboard-response",19,109601,"0.0-3.0-0.0-6.0","2391","","<div style='float: left; height: 250px; width: 200px;')></div><div style='float: left;z-index: 1; display: flex; justify-content: center; align-items: center; height: 250px; width: 179px; border-style: solid; border-style: solid; border-width: 2px; border-color: white; font-size:60px;'><div style='position: absolute; z-index: -1; background-image: url(./img/card2.png); height: 250px; width: 179px; opacity: 0.9;'></div>+700</div><div style='float: left; height: 250px; width: 200px;')></div><div style='position: fixed; bottom: 0;  left: 0%; width:100%; text-align: right'>Draw number: 3 of 5&nbsp<br>Deck number: 1 of 4&nbsp</div><div style='position: fixed; bottom: 50px; left: 0%; width:100%; font-size: 24pt'>Score: 1000</div><div style='position: fixed; font-size: 18pt; padding: 10px; background-color: white; line-height: 1.5; top: 0; left: 50%; transform: translate(-50%, 0); width: 80%; max-width: 1250px; border-style: solid; border-color: red'>This shows the payout from one draw from the deck.<br>Note that this example draw does not contribute to your score.<br><br>  In the experiment this payout disappears after 1 second. During these practice trials press SPACE BAR to move on.</div>","32",1,"forced_outcome",1,700,-1,"./img/card1.png","","","","","",19,1
"html-keyboard-response",20,111018,"0.0-3.0-0.0-7.0","1415.699999988079","","<div style='float: left; height: 250px; width: 200px;')></div><div style='float: left; border-style: solid; border-width: 2px; border-color: white; height: 250px; width: 179px;background-image: url(./img/card1.png); height: 250px; width: 179px;')></div><div style='float: left; height: 250px; width: 200px;')></div><div style='position: fixed; font-size: 18pt; padding: 10px; background-color: white; line-height: 1.5; top: 0; left: 50%; transform: translate(-50%, 0); width: 80%; max-width: 1250px; border-style: solid; border-color: red'>Press SPACE BAR to draw one card from the deck ...</div><div style='position: fixed; bottom: 0;  left: 0%; width:100%; text-align: right'>Draw number: 3 of 5&nbsp<br>Deck number: 1 of 4&nbsp</div><div style='position: fixed; bottom: 50px; left: 0%; width:100%; font-size: 24pt'>Score: 1000</div>","32",1,"forced_down",1,-100,-1,"","","","","","",19,1
"html-keyboard-response",21,114514,"0.0-3.0-0.0-8.0","3495","","<div style='float: left; height: 250px; width: 200px;')></div><div style='float: left;z-index: 1; display: flex; justify-content: center; align-items: center; height: 250px; width: 179px; border-style: solid; border-style: solid; border-width: 2px; border-color: white; font-size:60px;'><div style='position: absolute; z-index: -1; background-image: url(./img/card2.png); height: 250px; width: 179px; opacity: 0.9;'></div>+110</div><div style='float: left; height: 250px; width: 200px;')></div><div style='position: fixed; bottom: 0;  left: 0%; width:100%; text-align: right'>Draw number: 4 of 5&nbsp<br>Deck number: 1 of 4&nbsp</div><div style='position: fixed; bottom: 50px; left: 0%; width:100%; font-size: 24pt'>Score: 1000</div><div style='position: fixed; font-size: 18pt; padding: 10px; background-color: white; line-height: 1.5; top: 0; left: 50%; transform: translate(-50%, 0); width: 80%; max-width: 1250px; border-style: solid; border-color: red'>This shows the payout from one draw from the deck.<br>Note that this example draw does not contribute to your score.<br><br>  In the experiment this payout disappears after 1 second. During these practice trials press SPACE BAR to move on.</div>","32",1,"forced_outcome",1,110,-1,"./img/card1.png","","","","","",19,1
"html-keyboard-response",22,116378,"0.0-3.0-0.0-9.0","1863.4000000357628","","<div style='float: left; height: 250px; width: 200px;')></div><div style='float: left; border-style: solid; border-width: 2px; border-color: white; height: 250px; width: 179px;background-image: url(./img/card1.png); height: 250px; width: 179px;')></div><div style='float: left; height: 250px; width: 200px;')></div><div style='position: fixed; font-size: 18pt; padding: 10px; background-color: white; line-height: 1.5; top: 0; left: 50%; transform: translate(-50%, 0); width: 80%; max-width: 1250px; border-style: solid; border-color: red'>Press SPACE BAR to draw one card from the deck ...</div><div style='position: fixed; bottom: 0;  left: 0%; width:100%; text-align: right'>Draw number: 4 of 5&nbsp<br>Deck number: 1 of 4&nbsp</div><div style='position: fixed; bottom: 50px; left: 0%; width:100%; font-size: 24pt'>Score: 1000</div>","32",1,"forced_down",1,-100,-1,"","","","","","",19,1
"html-keyboard-response",23,120355,"0.0-3.0-0.0-10.0","3975.800000011921","","<div style='float: left; height: 250px; width: 200px;')></div><div style='float: left;z-index: 1; display: flex; justify-content: center; align-items: center; height: 250px; width: 179px; border-style: solid; border-style: solid; border-width: 2px; border-color: white; font-size:60px;'><div style='position: absolute; z-index: -1; background-image: url(./img/card2.png); height: 250px; width: 179px; opacity: 0.9;'></div>+90</div><div style='float: left; height: 250px; width: 200px;')></div><div style='position: fixed; bottom: 0;  left: 0%; width:100%; text-align: right'>Draw number: 5 of 5&nbsp<br>Deck number: 1 of 4&nbsp</div><div style='position: fixed; bottom: 50px; left: 0%; width:100%; font-size: 24pt'>Score: 1000</div><div style='position: fixed; font-size: 18pt; padding: 10px; background-color: white; line-height: 1.5; top: 0; left: 50%; transform: translate(-50%, 0); width: 80%; max-width: 1250px; border-style: solid; border-color: red'>This shows the payout from one draw from the deck.<br>Note that this example draw does not contribute to your score.<br><br>  In the experiment this payout disappears after 1 second. During these practice trials press SPACE BAR to move on.</div>","32",1,"forced_outcome",1,90,-1,"./img/card1.png","","","","","",19,1
"html-keyboard-response",24,130484,"0.0-3.0-0.0-11.0","10127.900000035763","","<div style='float: left; display: flex; justify-content: center; align-items: center; height: 250px; width: 179px; border-style: solid; border-width: 2px; border-color: white; font-size:60px; color:grey; background-color: lightgrey;'')>+100</div><div style='float: left; height: 250px; width: 200px;')></div><div style='float: left; border-style: solid; border-width: 2px; border-color: white; height: 250px; width: 179px;background-image: url(./img/card1.png); height: 250px; width: 179px;')></div><div style='position: fixed; font-size: 18pt; padding: 10px; background-color: white; line-height: 1.5; top: 0; left: 50%; transform: translate(-50%, 0); width: 80%; max-width: 1250px; border-style: solid; border-color: red'>Now you have a choice.  Do you want to draw another card from the deck and get a random payout (which will be similar to the example draws you just made), or do you want a known offer for sure? <br><br>Note that the payout your receive from this choice contributes to your score. <br><br>Press F or J to choose left or right</div><div style='position: fixed; bottom: 0;  left: 0%; width:100%; text-align: right'>Choice&nbsp<br>Deck number: 1 of 4&nbsp</div><div style='position: fixed; bottom: 50px; left: 0%; width:100%; font-size: 24pt'>Score: 1000</div>","74",1,"choice_down",1,-1,0,"./img/card1.png",-1,-1,TRUE,100,"",19,1
"html-keyboard-response",25,134812,"0.0-3.0-0.0-12.0","4326.299999952316","","<div style='float: left; display: flex; justify-content: center; align-items: center; height: 250px; width: 179px; border-style: solid; border-width: 2px; border-color: white; font-size:60px; color:grey; background-color: lightgrey;'')>+100</div><div style='float: left; height: 250px; width: 200px;')></div><div style='float: left;z-index: 1; display: flex; justify-content: center; align-items: center; height: 250px; width: 179px; border-style: solid; border-style: solid; border-width: 2px; border-color: white; font-size:60px;'><div style='position: absolute; z-index: -1; background-image: url(./img/card2.png); height: 250px; width: 179px; opacity: 0.9;'></div>+80</div><div style='position: fixed; font-size: 18pt; padding: 10px; background-color: white; line-height: 1.5; top: 0; left: 50%; transform: translate(-50%, 0); width: 80%; max-width: 1250px; border-style: solid; border-color: red'>You chose another draw from the deck and earned 80 points. In the experiment this outcome will show for 1 second.  In this practice game please press SPACE BAR to continue.</div><div style='position: fixed; bottom: 0;  left: 0%; width:100%; text-align: right'>Choice&nbsp<br>Deck number: 1 of 4&nbsp</div><div style='position: fixed; bottom: 50px; left: 0%; width:100%; font-size: 24pt'>Score: 1080</div>","32",1,"choice_outcome",1,-1,0,"./img/card2.png","","","","",80,19,1
"html-keyboard-response",26,137221,"0.0-3.0-0.1-0.1","2407.199999988079","","<div style='float: left; border-style: solid; border-width: 2px; border-color: white; height: 250px; width: 179px;background-image: url(./img/card1.png); height: 250px; width: 179px;')></div><div style='position: fixed; font-size: 18pt; padding: 10px; background-color: white; line-height: 1.5; top: 0; left: 50%; transform: translate(-50%, 0); width: 80%; max-width: 1250px; border-style: solid; border-color: red'>The words """"New Deck"""" will appear each time there is a new deck with a different average payoff. The task automatically moves on after 1 second.  <br><br>For this practice game, press SPACE BAR to continue.</div><div style='position: fixed; bottom: 0;  left: 0%; width:100%; text-align: right'>Draw number: 0 of 5&nbsp<br>Deck number: 2 of 4&nbsp</div><div style='position: fixed; bottom: 50px; left: 0%; width:100%; font-size: 24pt'>Score: 1080</div>","32",1,"NewDeck",2,"","","","","","","","",19,1
"html-keyboard-response",27,138901,"0.0-3.0-0.1-1.1","1679.2999999523163","","<div style='float: left; height: 250px; width: 200px;')></div><div style='float: left; border-style: solid; border-width: 2px; border-color: white; height: 250px; width: 179px;background-image: url(./img/card1.png); height: 250px; width: 179px;')></div><div style='float: left; height: 250px; width: 200px;')></div><div style='position: fixed; font-size: 18pt; padding: 10px; background-color: white; line-height: 1.5; top: 0; left: 50%; transform: translate(-50%, 0); width: 80%; max-width: 1250px; border-style: solid; border-color: red'>Press SPACE BAR to draw one card from the deck ...</div><div style='position: fixed; bottom: 0;  left: 0%; width:100%; text-align: right'>Draw number: 0 of 5&nbsp<br>Deck number: 2 of 4&nbsp</div><div style='position: fixed; bottom: 50px; left: 0%; width:100%; font-size: 24pt'>Score: 1080</div>","32",1,"forced_down",2,-100,-1,"","","","","","",19,1
"html-keyboard-response",28,140077,"0.0-3.0-0.1-2.1","1175.199999988079","","<div style='float: left; height: 250px; width: 200px;')></div><div style='float: left;z-index: 1; display: flex; justify-content: center; align-items: center; height: 250px; width: 179px; border-style: solid; border-style: solid; border-width: 2px; border-color: white; font-size:60px;'><div style='position: absolute; z-index: -1; background-image: url(./img/card2.png); height: 250px; width: 179px; opacity: 0.9;'></div>+60</div><div style='float: left; height: 250px; width: 200px;')></div><div style='position: fixed; bottom: 0;  left: 0%; width:100%; text-align: right'>Draw number: 1 of 5&nbsp<br>Deck number: 2 of 4&nbsp</div><div style='position: fixed; bottom: 50px; left: 0%; width:100%; font-size: 24pt'>Score: 1080</div><div style='position: fixed; font-size: 18pt; padding: 10px; background-color: white; line-height: 1.5; top: 0; left: 50%; transform: translate(-50%, 0); width: 80%; max-width: 1250px; border-style: solid; border-color: red'>This shows the payout from one draw from the deck.<br>Note that this example draw does not contribute to your score.<br><br>  In the experiment this payout disappears after 1 second. During these practice trials press SPACE BAR to move on.</div>","32",1,"forced_outcome",2,60,-1,"./img/card1.png","","","","","",19,1
"html-keyboard-response",29,141725,"0.0-3.0-0.1-3.1","1647.5999999642372","","<div style='float: left; height: 250px; width: 200px;')></div><div style='float: left; border-style: solid; border-width: 2px; border-color: white; height: 250px; width: 179px;background-image: url(./img/card1.png); height: 250px; width: 179px;')></div><div style='float: left; height: 250px; width: 200px;')></div><div style='position: fixed; font-size: 18pt; padding: 10px; background-color: white; line-height: 1.5; top: 0; left: 50%; transform: translate(-50%, 0); width: 80%; max-width: 1250px; border-style: solid; border-color: red'>Press SPACE BAR to draw one card from the deck ...</div><div style='position: fixed; bottom: 0;  left: 0%; width:100%; text-align: right'>Draw number: 1 of 5&nbsp<br>Deck number: 2 of 4&nbsp</div><div style='position: fixed; bottom: 50px; left: 0%; width:100%; font-size: 24pt'>Score: 1080</div>","32",1,"forced_down",2,-100,-1,"","","","","","",19,1
"html-keyboard-response",30,142741,"0.0-3.0-0.1-4.1","1015.1000000238419","","<div style='float: left; height: 250px; width: 200px;')></div><div style='float: left;z-index: 1; display: flex; justify-content: center; align-items: center; height: 250px; width: 179px; border-style: solid; border-style: solid; border-width: 2px; border-color: white; font-size:60px;'><div style='position: absolute; z-index: -1; background-image: url(./img/card2.png); height: 250px; width: 179px; opacity: 0.9;'></div>+80</div><div style='float: left; height: 250px; width: 200px;')></div><div style='position: fixed; bottom: 0;  left: 0%; width:100%; text-align: right'>Draw number: 2 of 5&nbsp<br>Deck number: 2 of 4&nbsp</div><div style='position: fixed; bottom: 50px; left: 0%; width:100%; font-size: 24pt'>Score: 1080</div><div style='position: fixed; font-size: 18pt; padding: 10px; background-color: white; line-height: 1.5; top: 0; left: 50%; transform: translate(-50%, 0); width: 80%; max-width: 1250px; border-style: solid; border-color: red'>This shows the payout from one draw from the deck.<br>Note that this example draw does not contribute to your score.<br><br>  In the experiment this payout disappears after 1 second. During these practice trials press SPACE BAR to move on.</div>","32",1,"forced_outcome",2,80,-1,"./img/card1.png","","","","","",19,1
"html-keyboard-response",31,143574,"0.0-3.0-0.1-5.1","831.8000000119209","","<div style='float: left; height: 250px; width: 200px;')></div><div style='float: left; border-style: solid; border-width: 2px; border-color: white; height: 250px; width: 179px;background-image: url(./img/card1.png); height: 250px; width: 179px;')></div><div style='float: left; height: 250px; width: 200px;')></div><div style='position: fixed; font-size: 18pt; padding: 10px; background-color: white; line-height: 1.5; top: 0; left: 50%; transform: translate(-50%, 0); width: 80%; max-width: 1250px; border-style: solid; border-color: red'>Press SPACE BAR to draw one card from the deck ...</div><div style='position: fixed; bottom: 0;  left: 0%; width:100%; text-align: right'>Draw number: 2 of 5&nbsp<br>Deck number: 2 of 4&nbsp</div><div style='position: fixed; bottom: 50px; left: 0%; width:100%; font-size: 24pt'>Score: 1080</div>","32",1,"forced_down",2,-100,-1,"","","","","","",19,1
"html-keyboard-response",32,144853,"0.0-3.0-0.1-6.1","1278.8999999761581","","<div style='float: left; height: 250px; width: 200px;')></div><div style='float: left;z-index: 1; display: flex; justify-content: center; align-items: center; height: 250px; width: 179px; border-style: solid; border-style: solid; border-width: 2px; border-color: white; font-size:60px;'><div style='position: absolute; z-index: -1; background-image: url(./img/card2.png); height: 250px; width: 179px; opacity: 0.9;'></div>+60</div><div style='float: left; height: 250px; width: 200px;')></div><div style='position: fixed; bottom: 0;  left: 0%; width:100%; text-align: right'>Draw number: 3 of 5&nbsp<br>Deck number: 2 of 4&nbsp</div><div style='position: fixed; bottom: 50px; left: 0%; width:100%; font-size: 24pt'>Score: 1080</div><div style='position: fixed; font-size: 18pt; padding: 10px; background-color: white; line-height: 1.5; top: 0; left: 50%; transform: translate(-50%, 0); width: 80%; max-width: 1250px; border-style: solid; border-color: red'>This shows the payout from one draw from the deck.<br>Note that this example draw does not contribute to your score.<br><br>  In the experiment this payout disappears after 1 second. During these practice trials press SPACE BAR to move on.</div>","32",1,"forced_outcome",2,60,-1,"./img/card1.png","","","","","",19,1
"html-keyboard-response",33,145221,"0.0-3.0-0.1-7.1","367.2000000476837","","<div style='float: left; height: 250px; width: 200px;')></div><div style='float: left; border-style: solid; border-width: 2px; border-color: white; height: 250px; width: 179px;background-image: url(./img/card1.png); height: 250px; width: 179px;')></div><div style='float: left; height: 250px; width: 200px;')></div><div style='position: fixed; font-size: 18pt; padding: 10px; background-color: white; line-height: 1.5; top: 0; left: 50%; transform: translate(-50%, 0); width: 80%; max-width: 1250px; border-style: solid; border-color: red'>Press SPACE BAR to draw one card from the deck ...</div><div style='position: fixed; bottom: 0;  left: 0%; width:100%; text-align: right'>Draw number: 3 of 5&nbsp<br>Deck number: 2 of 4&nbsp</div><div style='position: fixed; bottom: 50px; left: 0%; width:100%; font-size: 24pt'>Score: 1080</div>","32",1,"forced_down",2,-100,-1,"","","","","","",19,1
"html-keyboard-response",34,146373,"0.0-3.0-0.1-8.1","1151.2000000476837","","<div style='float: left; height: 250px; width: 200px;')></div><div style='float: left;z-index: 1; display: flex; justify-content: center; align-items: center; height: 250px; width: 179px; border-style: solid; border-style: solid; border-width: 2px; border-color: white; font-size:60px;'><div style='position: absolute; z-index: -1; background-image: url(./img/card2.png); height: 250px; width: 179px; opacity: 0.9;'></div>+70</div><div style='float: left; height: 250px; width: 200px;')></div><div style='position: fixed; bottom: 0;  left: 0%; width:100%; text-align: right'>Draw number: 4 of 5&nbsp<br>Deck number: 2 of 4&nbsp</div><div style='position: fixed; bottom: 50px; left: 0%; width:100%; font-size: 24pt'>Score: 1080</div><div style='position: fixed; font-size: 18pt; padding: 10px; background-color: white; line-height: 1.5; top: 0; left: 50%; transform: translate(-50%, 0); width: 80%; max-width: 1250px; border-style: solid; border-color: red'>This shows the payout from one draw from the deck.<br>Note that this example draw does not contribute to your score.<br><br>  In the experiment this payout disappears after 1 second. During these practice trials press SPACE BAR to move on.</div>","32",1,"forced_outcome",2,70,-1,"./img/card1.png","","","","","",19,1
"html-keyboard-response",35,147302,"0.0-3.0-0.1-9.1","927.5","","<div style='float: left; height: 250px; width: 200px;')></div><div style='float: left; border-style: solid; border-width: 2px; border-color: white; height: 250px; width: 179px;background-image: url(./img/card1.png); height: 250px; width: 179px;')></div><div style='float: left; height: 250px; width: 200px;')></div><div style='position: fixed; font-size: 18pt; padding: 10px; background-color: white; line-height: 1.5; top: 0; left: 50%; transform: translate(-50%, 0); width: 80%; max-width: 1250px; border-style: solid; border-color: red'>Press SPACE BAR to draw one card from the deck ...</div><div style='position: fixed; bottom: 0;  left: 0%; width:100%; text-align: right'>Draw number: 4 of 5&nbsp<br>Deck number: 2 of 4&nbsp</div><div style='position: fixed; bottom: 50px; left: 0%; width:100%; font-size: 24pt'>Score: 1080</div>","32",1,"forced_down",2,-100,-1,"","","","","","",19,1
"html-keyboard-response",36,147854,"0.0-3.0-0.1-10.1","550.8000000119209","","<div style='float: left; height: 250px; width: 200px;')></div><div style='float: left;z-index: 1; display: flex; justify-content: center; align-items: center; height: 250px; width: 179px; border-style: solid; border-style: solid; border-width: 2px; border-color: white; font-size:60px;'><div style='position: absolute; z-index: -1; background-image: url(./img/card2.png); height: 250px; width: 179px; opacity: 0.9;'></div>+60</div><div style='float: left; height: 250px; width: 200px;')></div><div style='position: fixed; bottom: 0;  left: 0%; width:100%; text-align: right'>Draw number: 5 of 5&nbsp<br>Deck number: 2 of 4&nbsp</div><div style='position: fixed; bottom: 50px; left: 0%; width:100%; font-size: 24pt'>Score: 1080</div><div style='position: fixed; font-size: 18pt; padding: 10px; background-color: white; line-height: 1.5; top: 0; left: 50%; transform: translate(-50%, 0); width: 80%; max-width: 1250px; border-style: solid; border-color: red'>This shows the payout from one draw from the deck.<br>Note that this example draw does not contribute to your score.<br><br>  In the experiment this payout disappears after 1 second. During these practice trials press SPACE BAR to move on.</div>","32",1,"forced_outcome",2,60,-1,"./img/card1.png","","","","","",19,1
"html-keyboard-response",37,150878,"0.0-3.0-0.1-11.1","3023.2999999523163","","<div style='float: left; border-style: solid; border-width: 2px; border-color: white; height: 250px; width: 179px;background-image: url(./img/card1.png); height: 250px; width: 179px;')></div><div style='float: left; height: 250px; width: 200px;')></div><div style='float: left; display: flex; justify-content: center; align-items: center; height: 250px; width: 179px; border-style: solid; border-width: 2px; border-color: white; font-size:60px; color:grey; background-color: lightgrey;'')>+60</div><div style='position: fixed; font-size: 18pt; padding: 10px; background-color: white; line-height: 1.5; top: 0; left: 50%; transform: translate(-50%, 0); width: 80%; max-width: 1250px; border-style: solid; border-color: red'>Now you have a choice.  Do you want to draw another card from the deck and get a random payout (which will be similar to the example draws you just made), or do you want a known offer for sure? <br><br>Note that the payout your receive from this choice contributes to your score. <br><br>Press F or J to choose left or right</div><div style='position: fixed; bottom: 0;  left: 0%; width:100%; text-align: right'>Choice&nbsp<br>Deck number: 2 of 4&nbsp</div><div style='position: fixed; bottom: 50px; left: 0%; width:100%; font-size: 24pt'>Score: 1080</div>","70",1,"choice_down",2,-1,1,"./img/card1.png",-1,-1,TRUE,60,"",19,1
"html-keyboard-response",38,151855,"0.0-3.0-0.1-12.1","975.1000000238419","","<div style='float: left;z-index: 1; display: flex; justify-content: center; align-items: center; height: 250px; width: 179px; border-style: solid; border-style: solid; border-width: 2px; border-color: white; font-size:60px;'><div style='position: absolute; z-index: -1; background-image: url(./img/card2.png); height: 250px; width: 179px; opacity: 0.9;'></div>+40</div><div style='float: left; height: 250px; width: 200px;')></div><div style='float: left; display: flex; justify-content: center; align-items: center; height: 250px; width: 179px; border-style: solid; border-width: 2px; border-color: white; font-size:60px; color:grey; background-color: lightgrey;'')>+60</div><div style='position: fixed; font-size: 18pt; padding: 10px; background-color: white; line-height: 1.5; top: 0; left: 50%; transform: translate(-50%, 0); width: 80%; max-width: 1250px; border-style: solid; border-color: red'>You chose another draw from the deck and earned 40 points. In the experiment this outcome will show for 1 second.  In this practice game please press SPACE BAR to continue.</div><div style='position: fixed; bottom: 0;  left: 0%; width:100%; text-align: right'>Choice&nbsp<br>Deck number: 2 of 4&nbsp</div><div style='position: fixed; bottom: 50px; left: 0%; width:100%; font-size: 24pt'>Score: 1120</div>","32",1,"choice_outcome",2,-1,1,"./img/card2.png","","","","",40,19,1
"html-keyboard-response",39,165992,"0.0-3.0-0.2-0.2","14136.600000023842","","<div style='float: left; border-style: solid; border-width: 2px; border-color: white; height: 250px; width: 179px;background-image: url(./img/card1.png); height: 250px; width: 179px;')></div><div style='position: fixed; font-size: 18pt; padding: 10px; background-color: white; line-height: 1.5; top: 0; left: 50%; transform: translate(-50%, 0); width: 80%; max-width: 1250px; border-style: solid; border-color: red'>The words """"New Deck"""" will appear each time there is a new deck with a different average payoff. The task automatically moves on after 1 second.  <br><br>For this practice game, press SPACE BAR to continue.</div><div style='position: fixed; bottom: 0;  left: 0%; width:100%; text-align: right'>Draw number: 0 of 5&nbsp<br>Deck number: 3 of 4&nbsp</div><div style='position: fixed; bottom: 50px; left: 0%; width:100%; font-size: 24pt'>Score: 1120</div>","32",1,"NewDeck",3,"","","","","","","","",19,1
"html-keyboard-response",40,167456,"0.0-3.0-0.2-1.2","1462.7999999523163","","<div style='float: left; height: 250px; width: 200px;')></div><div style='float: left; border-style: solid; border-width: 2px; border-color: white; height: 250px; width: 179px;background-image: url(./img/card1.png); height: 250px; width: 179px;')></div><div style='float: left; height: 250px; width: 200px;')></div><div style='position: fixed; font-size: 18pt; padding: 10px; background-color: white; line-height: 1.5; top: 0; left: 50%; transform: translate(-50%, 0); width: 80%; max-width: 1250px; border-style: solid; border-color: red'>Press SPACE BAR to draw one card from the deck ...</div><div style='position: fixed; bottom: 0;  left: 0%; width:100%; text-align: right'>Draw number: 0 of 5&nbsp<br>Deck number: 3 of 4&nbsp</div><div style='position: fixed; bottom: 50px; left: 0%; width:100%; font-size: 24pt'>Score: 1120</div>","32",1,"forced_down",3,-100,-1,"","","","","","",19,1
"html-keyboard-response",41,171632,"0.0-3.0-0.2-2.2","4175.400000035763","","<div style='float: left; height: 250px; width: 200px;')></div><div style='float: left;z-index: 1; display: flex; justify-content: center; align-items: center; height: 250px; width: 179px; border-style: solid; border-width: 2px; border-color: white; font-size:60px;'><div style='position: absolute; z-index: -1; background-image: url(./img/card2.png); height: 250px; width: 179px; opacity: 0.9;'></div>-50</div><div style='float: left; height: 250px; width: 200px;')></div><div style='position: fixed; bottom: 0;  left: 0%; width:100%; text-align: right'>Draw number: 1 of 5&nbsp<br>Deck number: 3 of 4&nbsp</div><div style='position: fixed; bottom: 50px; left: 0%; width:100%; font-size: 24pt'>Score: 1120</div><div style='position: fixed; font-size: 18pt; padding: 10px; background-color: white; line-height: 1.5; top: 0; left: 50%; transform: translate(-50%, 0); width: 80%; max-width: 1250px; border-style: solid; border-color: red'>This shows the payout from one draw from the deck.<br>Note that this example draw does not contribute to your score.<br><br>  In the experiment this payout disappears after 1 second. During these practice trials press SPACE BAR to move on.</div>","32",1,"forced_outcome",3,-50,-1,"./img/card1.png","","","","","",19,1
"html-keyboard-response",42,172096,"0.0-3.0-0.2-3.2","463.19999998807907","","<div style='float: left; height: 250px; width: 200px;')></div><div style='float: left; border-style: solid; border-width: 2px; border-color: white; height: 250px; width: 179px;background-image: url(./img/card1.png); height: 250px; width: 179px;')></div><div style='float: left; height: 250px; width: 200px;')></div><div style='position: fixed; font-size: 18pt; padding: 10px; background-color: white; line-height: 1.5; top: 0; left: 50%; transform: translate(-50%, 0); width: 80%; max-width: 1250px; border-style: solid; border-color: red'>Press SPACE BAR to draw one card from the deck ...</div><div style='position: fixed; bottom: 0;  left: 0%; width:100%; text-align: right'>Draw number: 1 of 5&nbsp<br>Deck number: 3 of 4&nbsp</div><div style='position: fixed; bottom: 50px; left: 0%; width:100%; font-size: 24pt'>Score: 1120</div>","32",1,"forced_down",3,-100,-1,"","","","","","",19,1
"html-keyboard-response",43,173937,"0.0-3.0-0.2-4.2","1839.800000011921","","<div style='float: left; height: 250px; width: 200px;')></div><div style='float: left;z-index: 1; display: flex; justify-content: center; align-items: center; height: 250px; width: 179px; border-style: solid; border-width: 2px; border-color: white; font-size:60px;'><div style='position: absolute; z-index: -1; background-image: url(./img/card2.png); height: 250px; width: 179px; opacity: 0.9;'></div>-70</div><div style='float: left; height: 250px; width: 200px;')></div><div style='position: fixed; bottom: 0;  left: 0%; width:100%; text-align: right'>Draw number: 2 of 5&nbsp<br>Deck number: 3 of 4&nbsp</div><div style='position: fixed; bottom: 50px; left: 0%; width:100%; font-size: 24pt'>Score: 1120</div><div style='position: fixed; font-size: 18pt; padding: 10px; background-color: white; line-height: 1.5; top: 0; left: 50%; transform: translate(-50%, 0); width: 80%; max-width: 1250px; border-style: solid; border-color: red'>This shows the payout from one draw from the deck.<br>Note that this example draw does not contribute to your score.<br><br>  In the experiment this payout disappears after 1 second. During these practice trials press SPACE BAR to move on.</div>","32",1,"forced_outcome",3,-70,-1,"./img/card1.png","","","","","",19,1
"html-keyboard-response",44,174193,"0.0-3.0-0.2-5.2","255.10000002384186","","<div style='float: left; height: 250px; width: 200px;')></div><div style='float: left; border-style: solid; border-width: 2px; border-color: white; height: 250px; width: 179px;background-image: url(./img/card1.png); height: 250px; width: 179px;')></div><div style='float: left; height: 250px; width: 200px;')></div><div style='position: fixed; font-size: 18pt; padding: 10px; background-color: white; line-height: 1.5; top: 0; left: 50%; transform: translate(-50%, 0); width: 80%; max-width: 1250px; border-style: solid; border-color: red'>Press SPACE BAR to draw one card from the deck ...</div><div style='position: fixed; bottom: 0;  left: 0%; width:100%; text-align: right'>Draw number: 2 of 5&nbsp<br>Deck number: 3 of 4&nbsp</div><div style='position: fixed; bottom: 50px; left: 0%; width:100%; font-size: 24pt'>Score: 1120</div>","32",1,"forced_down",3,-100,-1,"","","","","","",19,1
"html-keyboard-response",45,174472,"0.0-3.0-0.2-6.2","279.10000002384186","","<div style='float: left; height: 250px; width: 200px;')></div><div style='float: left;z-index: 1; display: flex; justify-content: center; align-items: center; height: 250px; width: 179px; border-style: solid; border-width: 2px; border-color: white; font-size:60px;'><div style='position: absolute; z-index: -1; background-image: url(./img/card2.png); height: 250px; width: 179px; opacity: 0.9;'></div>-10</div><div style='float: left; height: 250px; width: 200px;')></div><div style='position: fixed; bottom: 0;  left: 0%; width:100%; text-align: right'>Draw number: 3 of 5&nbsp<br>Deck number: 3 of 4&nbsp</div><div style='position: fixed; bottom: 50px; left: 0%; width:100%; font-size: 24pt'>Score: 1120</div><div style='position: fixed; font-size: 18pt; padding: 10px; background-color: white; line-height: 1.5; top: 0; left: 50%; transform: translate(-50%, 0); width: 80%; max-width: 1250px; border-style: solid; border-color: red'>This shows the payout from one draw from the deck.<br>Note that this example draw does not contribute to your score.<br><br>  In the experiment this payout disappears after 1 second. During these practice trials press SPACE BAR to move on.</div>","32",1,"forced_outcome",3,-10,-1,"./img/card1.png","","","","","",19,1
"html-keyboard-response",46,174785,"0.0-3.0-0.2-7.2","312.30000001192093","","<div style='float: left; height: 250px; width: 200px;')></div><div style='float: left; border-style: solid; border-width: 2px; border-color: white; height: 250px; width: 179px;background-image: url(./img/card1.png); height: 250px; width: 179px;')></div><div style='float: left; height: 250px; width: 200px;')></div><div style='position: fixed; font-size: 18pt; padding: 10px; background-color: white; line-height: 1.5; top: 0; left: 50%; transform: translate(-50%, 0); width: 80%; max-width: 1250px; border-style: solid; border-color: red'>Press SPACE BAR to draw one card from the deck ...</div><div style='position: fixed; bottom: 0;  left: 0%; width:100%; text-align: right'>Draw number: 3 of 5&nbsp<br>Deck number: 3 of 4&nbsp</div><div style='position: fixed; bottom: 50px; left: 0%; width:100%; font-size: 24pt'>Score: 1120</div>","32",1,"forced_down",3,-100,-1,"","","","","","",19,1
"html-keyboard-response",47,175169,"0.0-3.0-0.2-8.2","382.5","","<div style='float: left; height: 250px; width: 200px;')></div><div style='float: left;z-index: 1; display: flex; justify-content: center; align-items: center; height: 250px; width: 179px; border-style: solid; border-width: 2px; border-color: white; font-size:60px;'><div style='position: absolute; z-index: -1; background-image: url(./img/card2.png); height: 250px; width: 179px; opacity: 0.9;'></div>-60</div><div style='float: left; height: 250px; width: 200px;')></div><div style='position: fixed; bottom: 0;  left: 0%; width:100%; text-align: right'>Draw number: 4 of 5&nbsp<br>Deck number: 3 of 4&nbsp</div><div style='position: fixed; bottom: 50px; left: 0%; width:100%; font-size: 24pt'>Score: 1120</div><div style='position: fixed; font-size: 18pt; padding: 10px; background-color: white; line-height: 1.5; top: 0; left: 50%; transform: translate(-50%, 0); width: 80%; max-width: 1250px; border-style: solid; border-color: red'>This shows the payout from one draw from the deck.<br>Note that this example draw does not contribute to your score.<br><br>  In the experiment this payout disappears after 1 second. During these practice trials press SPACE BAR to move on.</div>","32",1,"forced_outcome",3,-60,-1,"./img/card1.png","","","","","",19,1
"html-keyboard-response",48,175489,"0.0-3.0-0.2-9.2","319.2000000476837","","<div style='float: left; height: 250px; width: 200px;')></div><div style='float: left; border-style: solid; border-width: 2px; border-color: white; height: 250px; width: 179px;background-image: url(./img/card1.png); height: 250px; width: 179px;')></div><div style='float: left; height: 250px; width: 200px;')></div><div style='position: fixed; font-size: 18pt; padding: 10px; background-color: white; line-height: 1.5; top: 0; left: 50%; transform: translate(-50%, 0); width: 80%; max-width: 1250px; border-style: solid; border-color: red'>Press SPACE BAR to draw one card from the deck ...</div><div style='position: fixed; bottom: 0;  left: 0%; width:100%; text-align: right'>Draw number: 4 of 5&nbsp<br>Deck number: 3 of 4&nbsp</div><div style='position: fixed; bottom: 50px; left: 0%; width:100%; font-size: 24pt'>Score: 1120</div>","32",1,"forced_down",3,-100,-1,"","","","","","",19,1
"html-keyboard-response",49,175801,"0.0-3.0-0.2-10.2","310.9000000357628","","<div style='float: left; height: 250px; width: 200px;')></div><div style='float: left;z-index: 1; display: flex; justify-content: center; align-items: center; height: 250px; width: 179px; border-style: solid; border-width: 2px; border-color: white; font-size:60px;'><div style='position: absolute; z-index: -1; background-image: url(./img/card2.png); height: 250px; width: 179px; opacity: 0.9;'></div>-530</div><div style='float: left; height: 250px; width: 200px;')></div><div style='position: fixed; bottom: 0;  left: 0%; width:100%; text-align: right'>Draw number: 5 of 5&nbsp<br>Deck number: 3 of 4&nbsp</div><div style='position: fixed; bottom: 50px; left: 0%; width:100%; font-size: 24pt'>Score: 1120</div><div style='position: fixed; font-size: 18pt; padding: 10px; background-color: white; line-height: 1.5; top: 0; left: 50%; transform: translate(-50%, 0); width: 80%; max-width: 1250px; border-style: solid; border-color: red'>This shows the payout from one draw from the deck.<br>Note that this example draw does not contribute to your score.<br><br>  In the experiment this payout disappears after 1 second. During these practice trials press SPACE BAR to move on.</div>","32",1,"forced_outcome",3,-530,-1,"./img/card1.png","","","","","",19,1
"html-keyboard-response",50,176345,"0.0-3.0-0.2-11.2","542.9000000357628","","<div style='float: left; border-style: solid; border-width: 2px; border-color: white; height: 250px; width: 179px;background-image: url(./img/card1.png); height: 250px; width: 179px;')></div><div style='float: left; height: 250px; width: 200px;')></div><div style='float: left; display: flex; justify-content: center; align-items: center; height: 250px; width: 179px; border-style: solid; border-width: 2px; border-color: white; font-size:60px; color:grey; background-color: lightgrey;'')>-90</div><div style='position: fixed; font-size: 18pt; padding: 10px; background-color: white; line-height: 1.5; top: 0; left: 50%; transform: translate(-50%, 0); width: 80%; max-width: 1250px; border-style: solid; border-color: red'>Now you have a choice.  Do you want to draw another card from the deck and get a random payout (which will be similar to the example draws you just made), or do you want a known offer for sure? <br><br>Note that the payout your receive from this choice contributes to your score. <br><br>Press F or J to choose left or right</div><div style='position: fixed; bottom: 0;  left: 0%; width:100%; text-align: right'>Choice&nbsp<br>Deck number: 3 of 4&nbsp</div><div style='position: fixed; bottom: 50px; left: 0%; width:100%; font-size: 24pt'>Score: 1120</div>","70",1,"choice_down",3,-1,1,"./img/card1.png",-1,-1,TRUE,-90,"",19,1
"html-keyboard-response",51,176976,"0.0-3.0-0.2-12.2","630.6000000238419","","<div style='float: left;z-index: 1; display: flex; justify-content: center; align-items: center; height: 250px; width: 179px; border-style: solid; border-width: 2px; border-color: white; font-size:60px;'><div style='position: absolute; z-index: -1; background-image: url(./img/card2.png); height: 250px; width: 179px; opacity: 0.9;'></div>-60</div><div style='float: left; height: 250px; width: 200px;')></div><div style='float: left; display: flex; justify-content: center; align-items: center; height: 250px; width: 179px; border-style: solid; border-width: 2px; border-color: white; font-size:60px; color:grey; background-color: lightgrey;'')>-90</div><div style='position: fixed; font-size: 18pt; padding: 10px; background-color: white; line-height: 1.5; top: 0; left: 50%; transform: translate(-50%, 0); width: 80%; max-width: 1250px; border-style: solid; border-color: red'>You chose another draw from the deck and earned -60 points. In the experiment this outcome will show for 1 second.  In this practice game please press SPACE BAR to continue.</div><div style='position: fixed; bottom: 0;  left: 0%; width:100%; text-align: right'>Choice&nbsp<br>Deck number: 3 of 4&nbsp</div><div style='position: fixed; bottom: 50px; left: 0%; width:100%; font-size: 24pt'>Score: 1060</div>","32",1,"choice_outcome",3,-1,1,"./img/card2.png","","","","",-60,19,1
"html-keyboard-response",52,177624,"0.0-3.0-0.3-0.3","647.4000000357628","","<div style='float: left; border-style: solid; border-width: 2px; border-color: white; height: 250px; width: 179px;background-image: url(./img/card1.png); height: 250px; width: 179px;')></div><div style='position: fixed; font-size: 18pt; padding: 10px; background-color: white; line-height: 1.5; top: 0; left: 50%; transform: translate(-50%, 0); width: 80%; max-width: 1250px; border-style: solid; border-color: red'>The words """"New Deck"""" will appear each time there is a new deck with a different average payoff. The task automatically moves on after 1 second.  <br><br>For this practice game, press SPACE BAR to continue.</div><div style='position: fixed; bottom: 0;  left: 0%; width:100%; text-align: right'>Draw number: 0 of 5&nbsp<br>Deck number: 4 of 4&nbsp</div><div style='position: fixed; bottom: 50px; left: 0%; width:100%; font-size: 24pt'>Score: 1060</div>","32",1,"NewDeck",4,"","","","","","","","",19,1
"html-keyboard-response",53,177841,"0.0-3.0-0.3-1.3","215.60000002384186","","<div style='float: left; height: 250px; width: 200px;')></div><div style='float: left; border-style: solid; border-width: 2px; border-color: white; height: 250px; width: 179px;background-image: url(./img/card1.png); height: 250px; width: 179px;')></div><div style='float: left; height: 250px; width: 200px;')></div><div style='position: fixed; font-size: 18pt; padding: 10px; background-color: white; line-height: 1.5; top: 0; left: 50%; transform: translate(-50%, 0); width: 80%; max-width: 1250px; border-style: solid; border-color: red'>Press SPACE BAR to draw one card from the deck ...</div><div style='position: fixed; bottom: 0;  left: 0%; width:100%; text-align: right'>Draw number: 0 of 5&nbsp<br>Deck number: 4 of 4&nbsp</div><div style='position: fixed; bottom: 50px; left: 0%; width:100%; font-size: 24pt'>Score: 1060</div>","32",1,"forced_down",4,-100,-1,"","","","","","",19,1
"html-keyboard-response",54,178017,"0.0-3.0-0.3-2.3","175.5","","<div style='float: left; height: 250px; width: 200px;')></div><div style='float: left;z-index: 1; display: flex; justify-content: center; align-items: center; height: 250px; width: 179px; border-style: solid; border-width: 2px; border-color: white; font-size:60px;'><div style='position: absolute; z-index: -1; background-image: url(./img/card2.png); height: 250px; width: 179px; opacity: 0.9;'></div>-40</div><div style='float: left; height: 250px; width: 200px;')></div><div style='position: fixed; bottom: 0;  left: 0%; width:100%; text-align: right'>Draw number: 1 of 5&nbsp<br>Deck number: 4 of 4&nbsp</div><div style='position: fixed; bottom: 50px; left: 0%; width:100%; font-size: 24pt'>Score: 1060</div><div style='position: fixed; font-size: 18pt; padding: 10px; background-color: white; line-height: 1.5; top: 0; left: 50%; transform: translate(-50%, 0); width: 80%; max-width: 1250px; border-style: solid; border-color: red'>This shows the payout from one draw from the deck.<br>Note that this example draw does not contribute to your score.<br><br>  In the experiment this payout disappears after 1 second. During these practice trials press SPACE BAR to move on.</div>","32",1,"forced_outcome",4,-40,-1,"./img/card1.png","","","","","",19,1
"html-keyboard-response",55,178329,"0.0-3.0-0.3-3.3","311.5","","<div style='float: left; height: 250px; width: 200px;')></div><div style='float: left; border-style: solid; border-width: 2px; border-color: white; height: 250px; width: 179px;background-image: url(./img/card1.png); height: 250px; width: 179px;')></div><div style='float: left; height: 250px; width: 200px;')></div><div style='position: fixed; font-size: 18pt; padding: 10px; background-color: white; line-height: 1.5; top: 0; left: 50%; transform: translate(-50%, 0); width: 80%; max-width: 1250px; border-style: solid; border-color: red'>Press SPACE BAR to draw one card from the deck ...</div><div style='position: fixed; bottom: 0;  left: 0%; width:100%; text-align: right'>Draw number: 1 of 5&nbsp<br>Deck number: 4 of 4&nbsp</div><div style='position: fixed; bottom: 50px; left: 0%; width:100%; font-size: 24pt'>Score: 1060</div>","32",1,"forced_down",4,-100,-1,"","","","","","",19,1
"html-keyboard-response",56,178577,"0.0-3.0-0.3-4.3","246.9000000357628","","<div style='float: left; height: 250px; width: 200px;')></div><div style='float: left;z-index: 1; display: flex; justify-content: center; align-items: center; height: 250px; width: 179px; border-style: solid; border-width: 2px; border-color: white; font-size:60px;'><div style='position: absolute; z-index: -1; background-image: url(./img/card2.png); height: 250px; width: 179px; opacity: 0.9;'></div>-50</div><div style='float: left; height: 250px; width: 200px;')></div><div style='position: fixed; bottom: 0;  left: 0%; width:100%; text-align: right'>Draw number: 2 of 5&nbsp<br>Deck number: 4 of 4&nbsp</div><div style='position: fixed; bottom: 50px; left: 0%; width:100%; font-size: 24pt'>Score: 1060</div><div style='position: fixed; font-size: 18pt; padding: 10px; background-color: white; line-height: 1.5; top: 0; left: 50%; transform: translate(-50%, 0); width: 80%; max-width: 1250px; border-style: solid; border-color: red'>This shows the payout from one draw from the deck.<br>Note that this example draw does not contribute to your score.<br><br>  In the experiment this payout disappears after 1 second. During these practice trials press SPACE BAR to move on.</div>","32",1,"forced_outcome",4,-50,-1,"./img/card1.png","","","","","",19,1
"html-keyboard-response",57,178833,"0.0-3.0-0.3-5.3","255.0999999642372","","<div style='float: left; height: 250px; width: 200px;')></div><div style='float: left; border-style: solid; border-width: 2px; border-color: white; height: 250px; width: 179px;background-image: url(./img/card1.png); height: 250px; width: 179px;')></div><div style='float: left; height: 250px; width: 200px;')></div><div style='position: fixed; font-size: 18pt; padding: 10px; background-color: white; line-height: 1.5; top: 0; left: 50%; transform: translate(-50%, 0); width: 80%; max-width: 1250px; border-style: solid; border-color: red'>Press SPACE BAR to draw one card from the deck ...</div><div style='position: fixed; bottom: 0;  left: 0%; width:100%; text-align: right'>Draw number: 2 of 5&nbsp<br>Deck number: 4 of 4&nbsp</div><div style='position: fixed; bottom: 50px; left: 0%; width:100%; font-size: 24pt'>Score: 1060</div>","32",1,"forced_down",4,-100,-1,"","","","","","",19,1
"html-keyboard-response",58,179177,"0.0-3.0-0.3-6.3","342.5","","<div style='float: left; height: 250px; width: 200px;')></div><div style='float: left;z-index: 1; display: flex; justify-content: center; align-items: center; height: 250px; width: 179px; border-style: solid; border-width: 2px; border-color: white; font-size:60px;'><div style='position: absolute; z-index: -1; background-image: url(./img/card2.png); height: 250px; width: 179px; opacity: 0.9;'></div>-50</div><div style='float: left; height: 250px; width: 200px;')></div><div style='position: fixed; bottom: 0;  left: 0%; width:100%; text-align: right'>Draw number: 3 of 5&nbsp<br>Deck number: 4 of 4&nbsp</div><div style='position: fixed; bottom: 50px; left: 0%; width:100%; font-size: 24pt'>Score: 1060</div><div style='position: fixed; font-size: 18pt; padding: 10px; background-color: white; line-height: 1.5; top: 0; left: 50%; transform: translate(-50%, 0); width: 80%; max-width: 1250px; border-style: solid; border-color: red'>This shows the payout from one draw from the deck.<br>Note that this example draw does not contribute to your score.<br><br>  In the experiment this payout disappears after 1 second. During these practice trials press SPACE BAR to move on.</div>","32",1,"forced_outcome",4,-50,-1,"./img/card1.png","","","","","",19,1
"html-keyboard-response",59,180049,"0.0-3.0-0.3-7.3","871.6999999880791","","<div style='float: left; height: 250px; width: 200px;')></div><div style='float: left; border-style: solid; border-width: 2px; border-color: white; height: 250px; width: 179px;background-image: url(./img/card1.png); height: 250px; width: 179px;')></div><div style='float: left; height: 250px; width: 200px;')></div><div style='position: fixed; font-size: 18pt; padding: 10px; background-color: white; line-height: 1.5; top: 0; left: 50%; transform: translate(-50%, 0); width: 80%; max-width: 1250px; border-style: solid; border-color: red'>Press SPACE BAR to draw one card from the deck ...</div><div style='position: fixed; bottom: 0;  left: 0%; width:100%; text-align: right'>Draw number: 3 of 5&nbsp<br>Deck number: 4 of 4&nbsp</div><div style='position: fixed; bottom: 50px; left: 0%; width:100%; font-size: 24pt'>Score: 1060</div>","32",1,"forced_down",4,-100,-1,"","","","","","",19,1
"html-keyboard-response",60,216998,"0.0-3.0-0.3-8.3","36947.19999998808","","<div style='float: left; height: 250px; width: 200px;')></div><div style='float: left;z-index: 1; display: flex; justify-content: center; align-items: center; height: 250px; width: 179px; border-style: solid; border-width: 2px; border-color: white; font-size:60px;'><div style='position: absolute; z-index: -1; background-image: url(./img/card2.png); height: 250px; width: 179px; opacity: 0.9;'></div>-60</div><div style='float: left; height: 250px; width: 200px;')></div><div style='position: fixed; bottom: 0;  left: 0%; width:100%; text-align: right'>Draw number: 4 of 5&nbsp<br>Deck number: 4 of 4&nbsp</div><div style='position: fixed; bottom: 50px; left: 0%; width:100%; font-size: 24pt'>Score: 1060</div><div style='position: fixed; font-size: 18pt; padding: 10px; background-color: white; line-height: 1.5; top: 0; left: 50%; transform: translate(-50%, 0); width: 80%; max-width: 1250px; border-style: solid; border-color: red'>This shows the payout from one draw from the deck.<br>Note that this example draw does not contribute to your score.<br><br>  In the experiment this payout disappears after 1 second. During these practice trials press SPACE BAR to move on.</div>","32",1,"forced_outcome",4,-60,-1,"./img/card1.png","","","","","",19,1
"html-keyboard-response",61,218389,"0.0-3.0-0.3-9.3","1391.1000000238419","","<div style='float: left; height: 250px; width: 200px;')></div><div style='float: left; border-style: solid; border-width: 2px; border-color: white; height: 250px; width: 179px;background-image: url(./img/card1.png); height: 250px; width: 179px;')></div><div style='float: left; height: 250px; width: 200px;')></div><div style='position: fixed; font-size: 18pt; padding: 10px; background-color: white; line-height: 1.5; top: 0; left: 50%; transform: translate(-50%, 0); width: 80%; max-width: 1250px; border-style: solid; border-color: red'>Press SPACE BAR to draw one card from the deck ...</div><div style='position: fixed; bottom: 0;  left: 0%; width:100%; text-align: right'>Draw number: 4 of 5&nbsp<br>Deck number: 4 of 4&nbsp</div><div style='position: fixed; bottom: 50px; left: 0%; width:100%; font-size: 24pt'>Score: 1060</div>","32",1,"forced_down",4,-100,-1,"","","","","","",19,1
"html-keyboard-response",62,225270,"0.0-3.0-0.3-10.3","6879.699999988079","","<div style='float: left; height: 250px; width: 200px;')></div><div style='float: left;z-index: 1; display: flex; justify-content: center; align-items: center; height: 250px; width: 179px; border-style: solid; border-width: 2px; border-color: white; font-size:60px;'><div style='position: absolute; z-index: -1; background-image: url(./img/card2.png); height: 250px; width: 179px; opacity: 0.9;'></div>-70</div><div style='float: left; height: 250px; width: 200px;')></div><div style='position: fixed; bottom: 0;  left: 0%; width:100%; text-align: right'>Draw number: 5 of 5&nbsp<br>Deck number: 4 of 4&nbsp</div><div style='position: fixed; bottom: 50px; left: 0%; width:100%; font-size: 24pt'>Score: 1060</div><div style='position: fixed; font-size: 18pt; padding: 10px; background-color: white; line-height: 1.5; top: 0; left: 50%; transform: translate(-50%, 0); width: 80%; max-width: 1250px; border-style: solid; border-color: red'>This shows the payout from one draw from the deck.<br>Note that this example draw does not contribute to your score.<br><br>  In the experiment this payout disappears after 1 second. During these practice trials press SPACE BAR to move on.</div>","32",1,"forced_outcome",4,-70,-1,"./img/card1.png","","","","","",19,1
"html-keyboard-response",63,273484,"0.0-3.0-0.3-11.3","48212.30000001192","","<div style='float: left; display: flex; justify-content: center; align-items: center; height: 250px; width: 179px; border-style: solid; border-width: 2px; border-color: white; font-size:60px; color:grey; background-color: lightgrey;'')>-40</div><div style='float: left; height: 250px; width: 200px;')></div><div style='float: left; border-style: solid; border-width: 2px; border-color: white; height: 250px; width: 179px;background-image: url(./img/card1.png); height: 250px; width: 179px;')></div><div style='position: fixed; font-size: 18pt; padding: 10px; background-color: white; line-height: 1.5; top: 0; left: 50%; transform: translate(-50%, 0); width: 80%; max-width: 1250px; border-style: solid; border-color: red'>Now you have a choice.  Do you want to draw another card from the deck and get a random payout (which will be similar to the example draws you just made), or do you want a known offer for sure? <br><br>Note that the payout your receive from this choice contributes to your score. <br><br>Press F or J to choose left or right</div><div style='position: fixed; bottom: 0;  left: 0%; width:100%; text-align: right'>Choice&nbsp<br>Deck number: 4 of 4&nbsp</div><div style='position: fixed; bottom: 50px; left: 0%; width:100%; font-size: 24pt'>Score: 1060</div>","74",1,"choice_down",4,-1,0,"./img/card1.png",-1,-1,TRUE,-40,"",19,1
"html-keyboard-response",64,274683,"0.0-3.0-0.3-12.3","1198.4000000357628","","<div style='float: left; display: flex; justify-content: center; align-items: center; height: 250px; width: 179px; border-style: solid; border-width: 2px; border-color: white; font-size:60px; color:grey; background-color: lightgrey;'')>-40</div><div style='float: left; height: 250px; width: 200px;')></div><div style='float: left;z-index: 1; display: flex; justify-content: center; align-items: center; height: 250px; width: 179px; border-style: solid; border-width: 2px; border-color: white; font-size:60px;'><div style='position: absolute; z-index: -1; background-image: url(./img/card2.png); height: 250px; width: 179px; opacity: 0.9;'></div>-50</div><div style='position: fixed; font-size: 18pt; padding: 10px; background-color: white; line-height: 1.5; top: 0; left: 50%; transform: translate(-50%, 0); width: 80%; max-width: 1250px; border-style: solid; border-color: red'>You chose another draw from the deck and earned -50 points. In the experiment this outcome will show for 1 second.  In this practice game please press SPACE BAR to continue.</div><div style='position: fixed; bottom: 0;  left: 0%; width:100%; text-align: right'>Choice&nbsp<br>Deck number: 4 of 4&nbsp</div><div style='position: fixed; bottom: 50px; left: 0%; width:100%; font-size: 24pt'>Score: 1010</div>","32",1,"choice_outcome",4,-1,0,"./img/card2.png","","","","",-50,19,1
"html-keyboard-response",65,373575,"0.0-4.0","98890.5","","<div style='position: fixed; font-size: 18pt; padding: 10px; background-color: white; line-height: 1.5; top: 0; left: 50%; transform: translate(-50%, 0); width: 80%; max-width: 1250px; border-style: solid; border-color: red'>Hopefully that all makes sense.  <br><br>You press SPACE BAR to draw from the deck 5 times and then F or J to make your choice.  Try to earn the most points you can!  <br><br>Press SPACE BAR to start the game.</div>","32","","","","","","","","","","","",19,1
"html-keyboard-response",66,374576,"0.0-5.0-0.0-0.0","null","","<div style='position: fixed; font-size:60px; top: 10%; left: 50%; transform: translate(-50%, 0); width: 80%; max-width: 800px; '>New Deck</div><div style='float: left; border-style: solid; border-width: 2px; border-color: white; height: 250px; width: 179px;background-image: url(./img/card1.png); height: 250px; width: 179px;')></div><div style='position: fixed; bottom: 0;  left: 0%; width:100%; text-align: right'>Draw number: 0 of 5&nbsp<br>Deck number: 1 of 100&nbsp</div><div style='position: fixed; bottom: 50px; left: 0%; width:100%; font-size: 24pt'>Score: 1000</div>","null",1,"NewDeck",1,"","","","","","","","",19,1
"html-keyboard-response",67,375478,"0.0-5.0-0.0-1.0","901.3000000119209","","<div style='float: left; height: 250px; width: 200px;')></div><div style='float: left; border-style: solid; border-width: 2px; border-color: white; height: 250px; width: 179px;background-image: url(./img/card1.png); height: 250px; width: 179px;')></div><div style='float: left; height: 250px; width: 200px;')></div><div style='position: fixed; font-size: 18pt; padding: 10px; background-color: white; line-height: 1.5; top: 0; left: 50%; transform: translate(-50%, 0); width: 80%; max-width: 1250px; border-style: solid; border-color: white'>Press SPACE BAR to draw one card.</div><div style='position: fixed; bottom: 0;  left: 0%; width:100%; text-align: right'>Draw number: 0 of 5&nbsp<br>Deck number: 1 of 100&nbsp</div><div style='position: fixed; bottom: 50px; left: 0%; width:100%; font-size: 24pt'>Score: 1000</div>","32",1,"forced_down",1,-100,-1,"","","","","","",19,1
"html-keyboard-response",68,376480,"0.0-5.0-0.0-2.0","null","","<div style='float: left; height: 250px; width: 200px;')></div><div style='float: left;z-index: 1; display: flex; justify-content: center; align-items: center; height: 250px; width: 179px; border-style: solid; border-width: 2px; border-color: white; font-size:60px;'><div style='position: absolute; z-index: -1; background-image: url(./img/card2.png); height: 250px; width: 179px; opacity: 0.9;'></div>-910</div><div style='float: left; height: 250px; width: 200px;')></div><div style='position: fixed; bottom: 0;  left: 0%; width:100%; text-align: right'>Draw number: 1 of 5&nbsp<br>Deck number: 1 of 100&nbsp</div><div style='position: fixed; bottom: 50px; left: 0%; width:100%; font-size: 24pt'>Score: 1000</div>","null",1,"forced_outcome",1,-910,-1,"./img/card1.png","","","","","",19,1
"html-keyboard-response",69,378143,"0.0-5.0-0.0-3.0","1661.6000000238419","","<div style='float: left; height: 250px; width: 200px;')></div><div style='float: left; border-style: solid; border-width: 2px; border-color: white; height: 250px; width: 179px;background-image: url(./img/card1.png); height: 250px; width: 179px;')></div><div style='float: left; height: 250px; width: 200px;')></div><div style='position: fixed; font-size: 18pt; padding: 10px; background-color: white; line-height: 1.5; top: 0; left: 50%; transform: translate(-50%, 0); width: 80%; max-width: 1250px; border-style: solid; border-color: white'>Press SPACE BAR to draw one card.</div><div style='position: fixed; bottom: 0;  left: 0%; width:100%; text-align: right'>Draw number: 1 of 5&nbsp<br>Deck number: 1 of 100&nbsp</div><div style='position: fixed; bottom: 50px; left: 0%; width:100%; font-size: 24pt'>Score: 1000</div>","32",1,"forced_down",1,-100,-1,"","","","","","",19,1
"html-keyboard-response",70,379153,"0.0-5.0-0.0-4.0","null","","<div style='float: left; height: 250px; width: 200px;')></div><div style='float: left;z-index: 1; display: flex; justify-content: center; align-items: center; height: 250px; width: 179px; border-style: solid; border-width: 2px; border-color: white; font-size:60px;'><div style='position: absolute; z-index: -1; background-image: url(./img/card2.png); height: 250px; width: 179px; opacity: 0.9;'></div>-80</div><div style='float: left; height: 250px; width: 200px;')></div><div style='position: fixed; bottom: 0;  left: 0%; width:100%; text-align: right'>Draw number: 2 of 5&nbsp<br>Deck number: 1 of 100&nbsp</div><div style='position: fixed; bottom: 50px; left: 0%; width:100%; font-size: 24pt'>Score: 1000</div>","null",1,"forced_outcome",1,-80,-1,"./img/card1.png","","","","","",19,1
"html-keyboard-response",71,380463,"0.0-5.0-0.0-5.0","1309.6000000238419","","<div style='float: left; height: 250px; width: 200px;')></div><div style='float: left; border-style: solid; border-width: 2px; border-color: white; height: 250px; width: 179px;background-image: url(./img/card1.png); height: 250px; width: 179px;')></div><div style='float: left; height: 250px; width: 200px;')></div><div style='position: fixed; font-size: 18pt; padding: 10px; background-color: white; line-height: 1.5; top: 0; left: 50%; transform: translate(-50%, 0); width: 80%; max-width: 1250px; border-style: solid; border-color: white'>Press SPACE BAR to draw one card.</div><div style='position: fixed; bottom: 0;  left: 0%; width:100%; text-align: right'>Draw number: 2 of 5&nbsp<br>Deck number: 1 of 100&nbsp</div><div style='position: fixed; bottom: 50px; left: 0%; width:100%; font-size: 24pt'>Score: 1000</div>","32",1,"forced_down",1,-100,-1,"","","","","","",19,1
"html-keyboard-response",72,381465,"0.0-5.0-0.0-6.0","null","","<div style='float: left; height: 250px; width: 200px;')></div><div style='float: left;z-index: 1; display: flex; justify-content: center; align-items: center; height: 250px; width: 179px; border-style: solid; border-width: 2px; border-color: white; font-size:60px;'><div style='position: absolute; z-index: -1; background-image: url(./img/card2.png); height: 250px; width: 179px; opacity: 0.9;'></div>-70</div><div style='float: left; height: 250px; width: 200px;')></div><div style='position: fixed; bottom: 0;  left: 0%; width:100%; text-align: right'>Draw number: 3 of 5&nbsp<br>Deck number: 1 of 100&nbsp</div><div style='position: fixed; bottom: 50px; left: 0%; width:100%; font-size: 24pt'>Score: 1000</div>","null",1,"forced_outcome",1,-70,-1,"./img/card1.png","","","","","",19,1
"html-keyboard-response",73,381943,"0.0-5.0-0.0-7.0","477.5","","<div style='float: left; height: 250px; width: 200px;')></div><div style='float: left; border-style: solid; border-width: 2px; border-color: white; height: 250px; width: 179px;background-image: url(./img/card1.png); height: 250px; width: 179px;')></div><div style='float: left; height: 250px; width: 200px;')></div><div style='position: fixed; font-size: 18pt; padding: 10px; background-color: white; line-height: 1.5; top: 0; left: 50%; transform: translate(-50%, 0); width: 80%; max-width: 1250px; border-style: solid; border-color: white'>Press SPACE BAR to draw one card.</div><div style='position: fixed; bottom: 0;  left: 0%; width:100%; text-align: right'>Draw number: 3 of 5&nbsp<br>Deck number: 1 of 100&nbsp</div><div style='position: fixed; bottom: 50px; left: 0%; width:100%; font-size: 24pt'>Score: 1000</div>","32",1,"forced_down",1,-100,-1,"","","","","","",19,1
"html-keyboard-response",74,382946,"0.0-5.0-0.0-8.0","null","","<div style='float: left; height: 250px; width: 200px;')></div><div style='float: left;z-index: 1; display: flex; justify-content: center; align-items: center; height: 250px; width: 179px; border-style: solid; border-width: 2px; border-color: white; font-size:60px;'><div style='position: absolute; z-index: -1; background-image: url(./img/card2.png); height: 250px; width: 179px; opacity: 0.9;'></div>-110</div><div style='float: left; height: 250px; width: 200px;')></div><div style='position: fixed; bottom: 0;  left: 0%; width:100%; text-align: right'>Draw number: 4 of 5&nbsp<br>Deck number: 1 of 100&nbsp</div><div style='position: fixed; bottom: 50px; left: 0%; width:100%; font-size: 24pt'>Score: 1000</div>","null",1,"forced_outcome",1,-110,-1,"./img/card1.png","","","","","",19,1
"html-keyboard-response",75,383680,"0.0-5.0-0.0-9.0","733","","<div style='float: left; height: 250px; width: 200px;')></div><div style='float: left; border-style: solid; border-width: 2px; border-color: white; height: 250px; width: 179px;background-image: url(./img/card1.png); height: 250px; width: 179px;')></div><div style='float: left; height: 250px; width: 200px;')></div><div style='position: fixed; font-size: 18pt; padding: 10px; background-color: white; line-height: 1.5; top: 0; left: 50%; transform: translate(-50%, 0); width: 80%; max-width: 1250px; border-style: solid; border-color: white'>Press SPACE BAR to draw one card.</div><div style='position: fixed; bottom: 0;  left: 0%; width:100%; text-align: right'>Draw number: 4 of 5&nbsp<br>Deck number: 1 of 100&nbsp</div><div style='position: fixed; bottom: 50px; left: 0%; width:100%; font-size: 24pt'>Score: 1000</div>","32",1,"forced_down",1,-100,-1,"","","","","","",19,1
"html-keyboard-response",76,384681,"0.0-5.0-0.0-10.0","null","","<div style='float: left; height: 250px; width: 200px;')></div><div style='float: left;z-index: 1; display: flex; justify-content: center; align-items: center; height: 250px; width: 179px; border-style: solid; border-width: 2px; border-color: white; font-size:60px;'><div style='position: absolute; z-index: -1; background-image: url(./img/card2.png); height: 250px; width: 179px; opacity: 0.9;'></div>-130</div><div style='float: left; height: 250px; width: 200px;')></div><div style='position: fixed; bottom: 0;  left: 0%; width:100%; text-align: right'>Draw number: 5 of 5&nbsp<br>Deck number: 1 of 100&nbsp</div><div style='position: fixed; bottom: 50px; left: 0%; width:100%; font-size: 24pt'>Score: 1000</div>","null",1,"forced_outcome",1,-130,-1,"./img/card1.png","","","","","",19,1
"html-keyboard-response",77,388536,"0.0-5.0-0.0-11.0","3853.399999976158","","<div style='float: left; display: flex; justify-content: center; align-items: center; height: 250px; width: 179px; border-style: solid; border-width: 2px; border-color: white; font-size:60px; color:grey; background-color: lightgrey;'')>-30</div><div style='float: left; height: 250px; width: 200px;')></div><div style='float: left; border-style: solid; border-width: 2px; border-color: white; height: 250px; width: 179px;background-image: url(./img/card1.png); height: 250px; width: 179px;')></div><div style='position: fixed; font-size: 18pt; padding: 10px; background-color: white; line-height: 1.5; top: 0; left: 50%; transform: translate(-50%, 0); width: 80%; max-width: 1250px; border-style: solid; border-color: white'>Do you want another draw from the deck or -30 points for sure?<br><br>Press F to choose left, J to choose right</div><div style='position: fixed; bottom: 0;  left: 0%; width:100%; text-align: right'>Choice&nbsp<br>Deck number: 1 of 100&nbsp</div><div style='position: fixed; bottom: 50px; left: 0%; width:100%; font-size: 24pt'>Score: 1000</div>","70",1,"choice_down",1,-1,0,"./img/card1.png",-1,-1,FALSE,-30,"",19,1
"html-keyboard-response",78,389537,"0.0-5.0-0.0-12.0","null","","<div style='float: left; display: flex; justify-content: center; align-items: center; height: 250px; width: 179px; border-style: solid; border-width: 2px; border-color: black; font-size:60px;'')>-30</div><div style='float: left; height: 250px; width: 200px;')></div><div style='float: left; border-style: solid; border-width: 2px; border-color: white; height: 250px; width: 179px;background-image: url(./img/card1.png); height: 250px; width: 179px;')></div><div style='position: fixed; bottom: 0;  left: 0%; width:100%; text-align: right'>Choice&nbsp<br>Deck number: 1 of 100&nbsp</div><div style='position: fixed; bottom: 50px; left: 0%; width:100%; font-size: 24pt'>Score: 970</div>","null",1,"choice_outcome",1,-1,0,"./img/card1.png","","","","",-30,19,1
"html-keyboard-response",79,390539,"0.0-5.0-0.1-0.1","null","","<div style='position: fixed; font-size:60px; top: 10%; left: 50%; transform: translate(-50%, 0); width: 80%; max-width: 800px; '>New Deck</div><div style='float: left; border-style: solid; border-width: 2px; border-color: white; height: 250px; width: 179px;background-image: url(./img/card1.png); height: 250px; width: 179px;')></div><div style='position: fixed; bottom: 0;  left: 0%; width:100%; text-align: right'>Draw number: 0 of 5&nbsp<br>Deck number: 2 of 100&nbsp</div><div style='position: fixed; bottom: 50px; left: 0%; width:100%; font-size: 24pt'>Score: 970</div>","null",1,"NewDeck",2,"","","","","","","","",19,1
"html-keyboard-response",80,390560,"0.0-5.0-0.1-1.1","19.700000047683716","","<div style='float: left; height: 250px; width: 200px;')></div><div style='float: left; border-style: solid; border-width: 2px; border-color: white; height: 250px; width: 179px;background-image: url(./img/card1.png); height: 250px; width: 179px;')></div><div style='float: left; height: 250px; width: 200px;')></div><div style='position: fixed; font-size: 18pt; padding: 10px; background-color: white; line-height: 1.5; top: 0; left: 50%; transform: translate(-50%, 0); width: 80%; max-width: 1250px; border-style: solid; border-color: white'>Press SPACE BAR to draw one card.</div><div style='position: fixed; bottom: 0;  left: 0%; width:100%; text-align: right'>Draw number: 0 of 5&nbsp<br>Deck number: 2 of 100&nbsp</div><div style='position: fixed; bottom: 50px; left: 0%; width:100%; font-size: 24pt'>Score: 970</div>","32",1,"forced_down",2,-100,-1,"","","","","","",19,1
"html-keyboard-response",81,391562,"0.0-5.0-0.1-2.1","null","","<div style='float: left; height: 250px; width: 200px;')></div><div style='float: left;z-index: 1; display: flex; justify-content: center; align-items: center; height: 250px; width: 179px; border-style: solid; border-style: solid; border-width: 2px; border-color: white; font-size:60px;'><div style='position: absolute; z-index: -1; background-image: url(./img/card2.png); height: 250px; width: 179px; opacity: 0.9;'></div>+150</div><div style='float: left; height: 250px; width: 200px;')></div><div style='position: fixed; bottom: 0;  left: 0%; width:100%; text-align: right'>Draw number: 1 of 5&nbsp<br>Deck number: 2 of 100&nbsp</div><div style='position: fixed; bottom: 50px; left: 0%; width:100%; font-size: 24pt'>Score: 970</div>","null",1,"forced_outcome",2,150,-1,"./img/card1.png","","","","","",19,1
"html-keyboard-response",82,391864,"0.0-5.0-0.1-3.1","300.30000001192093","","<div style='float: left; height: 250px; width: 200px;')></div><div style='float: left; border-style: solid; border-width: 2px; border-color: white; height: 250px; width: 179px;background-image: url(./img/card1.png); height: 250px; width: 179px;')></div><div style='float: left; height: 250px; width: 200px;')></div><div style='position: fixed; font-size: 18pt; padding: 10px; background-color: white; line-height: 1.5; top: 0; left: 50%; transform: translate(-50%, 0); width: 80%; max-width: 1250px; border-style: solid; border-color: white'>Press SPACE BAR to draw one card.</div><div style='position: fixed; bottom: 0;  left: 0%; width:100%; text-align: right'>Draw number: 1 of 5&nbsp<br>Deck number: 2 of 100&nbsp</div><div style='position: fixed; bottom: 50px; left: 0%; width:100%; font-size: 24pt'>Score: 970</div>","32",1,"forced_down",2,-100,-1,"","","","","","",19,1
"html-keyboard-response",83,392866,"0.0-5.0-0.1-4.1","null","","<div style='float: left; height: 250px; width: 200px;')></div><div style='float: left;z-index: 1; display: flex; justify-content: center; align-items: center; height: 250px; width: 179px; border-style: solid; border-style: solid; border-width: 2px; border-color: white; font-size:60px;'><div style='position: absolute; z-index: -1; background-image: url(./img/card2.png); height: 250px; width: 179px; opacity: 0.9;'></div>+140</div><div style='float: left; height: 250px; width: 200px;')></div><div style='position: fixed; bottom: 0;  left: 0%; width:100%; text-align: right'>Draw number: 2 of 5&nbsp<br>Deck number: 2 of 100&nbsp</div><div style='position: fixed; bottom: 50px; left: 0%; width:100%; font-size: 24pt'>Score: 970</div>","null",1,"forced_outcome",2,140,-1,"./img/card1.png","","","","","",19,1
"html-keyboard-response",84,393144,"0.0-5.0-0.1-5.1","277.5","","<div style='float: left; height: 250px; width: 200px;')></div><div style='float: left; border-style: solid; border-width: 2px; border-color: white; height: 250px; width: 179px;background-image: url(./img/card1.png); height: 250px; width: 179px;')></div><div style='float: left; height: 250px; width: 200px;')></div><div style='position: fixed; font-size: 18pt; padding: 10px; background-color: white; line-height: 1.5; top: 0; left: 50%; transform: translate(-50%, 0); width: 80%; max-width: 1250px; border-style: solid; border-color: white'>Press SPACE BAR to draw one card.</div><div style='position: fixed; bottom: 0;  left: 0%; width:100%; text-align: right'>Draw number: 2 of 5&nbsp<br>Deck number: 2 of 100&nbsp</div><div style='position: fixed; bottom: 50px; left: 0%; width:100%; font-size: 24pt'>Score: 970</div>","32",1,"forced_down",2,-100,-1,"","","","","","",19,1
"html-keyboard-response",85,394145,"0.0-5.0-0.1-6.1","null","","<div style='float: left; height: 250px; width: 200px;')></div><div style='float: left;z-index: 1; display: flex; justify-content: center; align-items: center; height: 250px; width: 179px; border-style: solid; border-style: solid; border-width: 2px; border-color: white; font-size:60px;'><div style='position: absolute; z-index: -1; background-image: url(./img/card2.png); height: 250px; width: 179px; opacity: 0.9;'></div>+140</div><div style='float: left; height: 250px; width: 200px;')></div><div style='position: fixed; bottom: 0;  left: 0%; width:100%; text-align: right'>Draw number: 3 of 5&nbsp<br>Deck number: 2 of 100&nbsp</div><div style='position: fixed; bottom: 50px; left: 0%; width:100%; font-size: 24pt'>Score: 970</div>","null",1,"forced_outcome",2,140,-1,"./img/card1.png","","","","","",19,1
"html-keyboard-response",86,394401,"0.0-5.0-0.1-7.1","254.5999999642372","","<div style='float: left; height: 250px; width: 200px;')></div><div style='float: left; border-style: solid; border-width: 2px; border-color: white; height: 250px; width: 179px;background-image: url(./img/card1.png); height: 250px; width: 179px;')></div><div style='float: left; height: 250px; width: 200px;')></div><div style='position: fixed; font-size: 18pt; padding: 10px; background-color: white; line-height: 1.5; top: 0; left: 50%; transform: translate(-50%, 0); width: 80%; max-width: 1250px; border-style: solid; border-color: white'>Press SPACE BAR to draw one card.</div><div style='position: fixed; bottom: 0;  left: 0%; width:100%; text-align: right'>Draw number: 3 of 5&nbsp<br>Deck number: 2 of 100&nbsp</div><div style='position: fixed; bottom: 50px; left: 0%; width:100%; font-size: 24pt'>Score: 970</div>","32",1,"forced_down",2,-100,-1,"","","","","","",19,1
"html-keyboard-response",87,395402,"0.0-5.0-0.1-8.1","null","","<div style='float: left; height: 250px; width: 200px;')></div><div style='float: left;z-index: 1; display: flex; justify-content: center; align-items: center; height: 250px; width: 179px; border-style: solid; border-style: solid; border-width: 2px; border-color: white; font-size:60px;'><div style='position: absolute; z-index: -1; background-image: url(./img/card2.png); height: 250px; width: 179px; opacity: 0.9;'></div>+120</div><div style='float: left; height: 250px; width: 200px;')></div><div style='position: fixed; bottom: 0;  left: 0%; width:100%; text-align: right'>Draw number: 4 of 5&nbsp<br>Deck number: 2 of 100&nbsp</div><div style='position: fixed; bottom: 50px; left: 0%; width:100%; font-size: 24pt'>Score: 970</div>","null",1,"forced_outcome",2,120,-1,"./img/card1.png","","","","","",19,1
"html-keyboard-response",88,395696,"0.0-5.0-0.1-9.1","293.5","","<div style='float: left; height: 250px; width: 200px;')></div><div style='float: left; border-style: solid; border-width: 2px; border-color: white; height: 250px; width: 179px;background-image: url(./img/card1.png); height: 250px; width: 179px;')></div><div style='float: left; height: 250px; width: 200px;')></div><div style='position: fixed; font-size: 18pt; padding: 10px; background-color: white; line-height: 1.5; top: 0; left: 50%; transform: translate(-50%, 0); width: 80%; max-width: 1250px; border-style: solid; border-color: white'>Press SPACE BAR to draw one card.</div><div style='position: fixed; bottom: 0;  left: 0%; width:100%; text-align: right'>Draw number: 4 of 5&nbsp<br>Deck number: 2 of 100&nbsp</div><div style='position: fixed; bottom: 50px; left: 0%; width:100%; font-size: 24pt'>Score: 970</div>","32",1,"forced_down",2,-100,-1,"","","","","","",19,1
"html-keyboard-response",89,396698,"0.0-5.0-0.1-10.1","null","","<div style='float: left; height: 250px; width: 200px;')></div><div style='float: left;z-index: 1; display: flex; justify-content: center; align-items: center; height: 250px; width: 179px; border-style: solid; border-style: solid; border-width: 2px; border-color: white; font-size:60px;'><div style='position: absolute; z-index: -1; background-image: url(./img/card2.png); height: 250px; width: 179px; opacity: 0.9;'></div>+140</div><div style='float: left; height: 250px; width: 200px;')></div><div style='position: fixed; bottom: 0;  left: 0%; width:100%; text-align: right'>Draw number: 5 of 5&nbsp<br>Deck number: 2 of 100&nbsp</div><div style='position: fixed; bottom: 50px; left: 0%; width:100%; font-size: 24pt'>Score: 970</div>","null",1,"forced_outcome",2,140,-1,"./img/card1.png","","","","","",19,1
"html-keyboard-response",90,398737,"0.0-5.0-0.1-11.1","2037.9000000357628","","<div style='float: left; display: flex; justify-content: center; align-items: center; height: 250px; width: 179px; border-style: solid; border-width: 2px; border-color: white; font-size:60px; color:grey; background-color: lightgrey;'')>+250</div><div style='float: left; height: 250px; width: 200px;')></div><div style='float: left; border-style: solid; border-width: 2px; border-color: white; height: 250px; width: 179px;background-image: url(./img/card1.png); height: 250px; width: 179px;')></div><div style='position: fixed; font-size: 18pt; padding: 10px; background-color: white; line-height: 1.5; top: 0; left: 50%; transform: translate(-50%, 0); width: 80%; max-width: 1250px; border-style: solid; border-color: white'>Do you want another draw from the deck or 250 points for sure?<br><br>Press F to choose left, J to choose right</div><div style='position: fixed; bottom: 0;  left: 0%; width:100%; text-align: right'>Choice&nbsp<br>Deck number: 2 of 100&nbsp</div><div style='position: fixed; bottom: 50px; left: 0%; width:100%; font-size: 24pt'>Score: 970</div>","70",1,"choice_down",2,-1,0,"./img/card1.png",-1,-1,FALSE,250,"",19,1
"html-keyboard-response",91,399739,"0.0-5.0-0.1-12.1","null","","<div style='float: left; display: flex; justify-content: center; align-items: center; height: 250px; width: 179px; border-style: solid; border-width: 2px; border-color: black; font-size:60px;'')>+250</div><div style='float: left; height: 250px; width: 200px;')></div><div style='float: left; border-style: solid; border-width: 2px; border-color: white; height: 250px; width: 179px;background-image: url(./img/card1.png); height: 250px; width: 179px;')></div><div style='position: fixed; bottom: 0;  left: 0%; width:100%; text-align: right'>Choice&nbsp<br>Deck number: 2 of 100&nbsp</div><div style='position: fixed; bottom: 50px; left: 0%; width:100%; font-size: 24pt'>Score: 1220</div>","null",1,"choice_outcome",2,-1,0,"./img/card1.png","","","","",250,19,1
"html-keyboard-response",92,400750,"0.0-5.0-0.2-0.2","null","","<div style='position: fixed; font-size:60px; top: 10%; left: 50%; transform: translate(-50%, 0); width: 80%; max-width: 800px; '>New Deck</div><div style='float: left; border-style: solid; border-width: 2px; border-color: white; height: 250px; width: 179px;background-image: url(./img/card1.png); height: 250px; width: 179px;')></div><div style='position: fixed; bottom: 0;  left: 0%; width:100%; text-align: right'>Draw number: 0 of 5&nbsp<br>Deck number: 3 of 100&nbsp</div><div style='position: fixed; bottom: 50px; left: 0%; width:100%; font-size: 24pt'>Score: 1220</div>","null",1,"NewDeck",3,"","","","","","","","",19,1
"html-keyboard-response",93,401145,"0.0-5.0-0.2-1.2","394.69999998807907","","<div style='float: left; height: 250px; width: 200px;')></div><div style='float: left; border-style: solid; border-width: 2px; border-color: white; height: 250px; width: 179px;background-image: url(./img/card1.png); height: 250px; width: 179px;')></div><div style='float: left; height: 250px; width: 200px;')></div><div style='position: fixed; font-size: 18pt; padding: 10px; background-color: white; line-height: 1.5; top: 0; left: 50%; transform: translate(-50%, 0); width: 80%; max-width: 1250px; border-style: solid; border-color: white'>Press SPACE BAR to draw one card.</div><div style='position: fixed; bottom: 0;  left: 0%; width:100%; text-align: right'>Draw number: 0 of 5&nbsp<br>Deck number: 3 of 100&nbsp</div><div style='position: fixed; bottom: 50px; left: 0%; width:100%; font-size: 24pt'>Score: 1220</div>","32",1,"forced_down",3,-100,-1,"","","","","","",19,1
"html-keyboard-response",94,402147,"0.0-5.0-0.2-2.2","null","","<div style='float: left; height: 250px; width: 200px;')></div><div style='float: left;z-index: 1; display: flex; justify-content: center; align-items: center; height: 250px; width: 179px; border-style: solid; border-style: solid; border-width: 2px; border-color: white; font-size:60px;'><div style='position: absolute; z-index: -1; background-image: url(./img/card2.png); height: 250px; width: 179px; opacity: 0.9;'></div>+160</div><div style='float: left; height: 250px; width: 200px;')></div><div style='position: fixed; bottom: 0;  left: 0%; width:100%; text-align: right'>Draw number: 1 of 5&nbsp<br>Deck number: 3 of 100&nbsp</div><div style='position: fixed; bottom: 50px; left: 0%; width:100%; font-size: 24pt'>Score: 1220</div>","null",1,"forced_outcome",3,160,-1,"./img/card1.png","","","","","",19,1
"html-keyboard-response",95,402337,"0.0-5.0-0.2-3.2","189.5999999642372","","<div style='float: left; height: 250px; width: 200px;')></div><div style='float: left; border-style: solid; border-width: 2px; border-color: white; height: 250px; width: 179px;background-image: url(./img/card1.png); height: 250px; width: 179px;')></div><div style='float: left; height: 250px; width: 200px;')></div><div style='position: fixed; font-size: 18pt; padding: 10px; background-color: white; line-height: 1.5; top: 0; left: 50%; transform: translate(-50%, 0); width: 80%; max-width: 1250px; border-style: solid; border-color: white'>Press SPACE BAR to draw one card.</div><div style='position: fixed; bottom: 0;  left: 0%; width:100%; text-align: right'>Draw number: 1 of 5&nbsp<br>Deck number: 3 of 100&nbsp</div><div style='position: fixed; bottom: 50px; left: 0%; width:100%; font-size: 24pt'>Score: 1220</div>","32",1,"forced_down",3,-100,-1,"","","","","","",19,1
"html-keyboard-response",96,403345,"0.0-5.0-0.2-4.2","null","","<div style='float: left; height: 250px; width: 200px;')></div><div style='float: left;z-index: 1; display: flex; justify-content: center; align-items: center; height: 250px; width: 179px; border-style: solid; border-style: solid; border-width: 2px; border-color: white; font-size:60px;'><div style='position: absolute; z-index: -1; background-image: url(./img/card2.png); height: 250px; width: 179px; opacity: 0.9;'></div>+120</div><div style='float: left; height: 250px; width: 200px;')></div><div style='position: fixed; bottom: 0;  left: 0%; width:100%; text-align: right'>Draw number: 2 of 5&nbsp<br>Deck number: 3 of 100&nbsp</div><div style='position: fixed; bottom: 50px; left: 0%; width:100%; font-size: 24pt'>Score: 1220</div>","null",1,"forced_outcome",3,120,-1,"./img/card1.png","","","","","",19,1
"html-keyboard-response",97,403538,"0.0-5.0-0.2-5.2","191.89999997615814","","<div style='float: left; height: 250px; width: 200px;')></div><div style='float: left; border-style: solid; border-width: 2px; border-color: white; height: 250px; width: 179px;background-image: url(./img/card1.png); height: 250px; width: 179px;')></div><div style='float: left; height: 250px; width: 200px;')></div><div style='position: fixed; font-size: 18pt; padding: 10px; background-color: white; line-height: 1.5; top: 0; left: 50%; transform: translate(-50%, 0); width: 80%; max-width: 1250px; border-style: solid; border-color: white'>Press SPACE BAR to draw one card.</div><div style='position: fixed; bottom: 0;  left: 0%; width:100%; text-align: right'>Draw number: 2 of 5&nbsp<br>Deck number: 3 of 100&nbsp</div><div style='position: fixed; bottom: 50px; left: 0%; width:100%; font-size: 24pt'>Score: 1220</div>","32",1,"forced_down",3,-100,-1,"","","","","","",19,1
