"trial_type","trial_index","time_elapsed","internal_node_id","rt","responses","stimulus","key_press","block","type","counter","reward","side","card","mean","sigma","choseDeck","offer","reward_on_choice","age","gender"
"pavlovia",0,3,"0.0-0.0","","","","","","","","","","","","","","","",20,2
"survey-text",1,4094,"0.0-1.0","4088.5999999046326","{""""Start"""":""""""""}","","","","","","","","","","","","","",20,2
"html-keyboard-response",2,6486,"0.0-2.0-0.0","2387.899999976158","","<div style='position: fixed; font-size: 18pt; padding: 10px; background-color: white; line-height: 1.5; top: 0; left: 50%; transform: translate(-50%, 0); width: 80%; max-width: 1250px; border-style: solid; border-color: red'>Welcome to the experiment!<br><br>[press any key to continue]</div>","32","","","","","","","","","","","",20,2
"html-keyboard-response",3,12114,"0.0-2.0-1.0","5627.100000023842","","<div style='position: fixed; font-size: 18pt; padding: 10px; background-color: white; line-height: 1.5; top: 0; left: 50%; transform: translate(-50%, 0); width: 80%; max-width: 1250px; border-style: solid; border-color: red'>In this experiment you will make decisions about whether to draw a card to get a variable payout or take a sure-thing payout.<br><br>[press any key to continue]</div>","32","","","","","","","","","","","",20,2
"html-keyboard-response",4,24689,"0.0-2.0-2.0","12572.900000095367","","<div style='position: fixed; font-size: 18pt; padding: 10px; background-color: white; line-height: 1.5; top: 0; left: 50%; transform: translate(-50%, 0); width: 80%; max-width: 1250px; border-style: solid; border-color: red'>Here is what your choice might look like. On the left is a deck of cards that has variable payouts and on the right a sure-thing offer of 100 points.<br><br>[press any key to continue]</div><div style='float: left; border-style: solid; border-width: 2px; border-color: white; height: 250px; width: 179px;background-image: url(./img/card1.png); height: 250px; width: 179px;')></div><div style='float: left; height: 250px; width: 200px;')></div><div style='float: left; display: flex; justify-content: center; align-items: center; height: 250px; width: 179px; border-style: solid; border-width: 2px; border-color: white; font-size:60px; color:grey; background-color: lightgrey;'')>+100</div>","32","","","","","","","","","","","",20,2
"html-keyboard-response",5,31974,"0.0-2.0-3.0","7283.299999952316","","<div style='position: fixed; font-size: 18pt; padding: 10px; background-color: white; line-height: 1.5; top: 0; left: 50%; transform: translate(-50%, 0); width: 80%; max-width: 1250px; border-style: solid; border-color: red'>You will press the 'F' key to choose the left-side option (deck). <br>You will press the 'J' key to choose the right-side option (sure-thing offer).<br><br>[press any key to continue]</div><div style='float: left; border-style: solid; border-width: 2px; border-color: white; height: 250px; width: 179px;background-image: url(./img/card1.png); height: 250px; width: 179px;')></div><div style='float: left; height: 250px; width: 200px;')></div><div style='float: left; display: flex; justify-content: center; align-items: center; height: 250px; width: 179px; border-style: solid; border-width: 2px; border-color: white; font-size:60px; color:grey; background-color: lightgrey;'')>+100</div>","32","","","","","","","","","","","",20,2
"html-keyboard-response",6,37437,"0.0-2.0-4.0","5461.299999952316","","<div style='position: fixed; font-size: 18pt; padding: 10px; background-color: white; line-height: 1.5; top: 0; left: 50%; transform: translate(-50%, 0); width: 80%; max-width: 1250px; border-style: solid; border-color: red'>If you choose the deck, you will get that card's hidden offer. <br><br>The offer could be a positive or negative.  <br><br>[press any key to continue]</div><div style='float: left; border-style: solid; border-width: 2px; border-color: white; height: 250px; width: 179px;background-image: url(./img/card1.png); height: 250px; width: 179px;')></div><div style='float: left; height: 250px; width: 200px;')></div><div style='float: left; display: flex; justify-content: center; align-items: center; height: 250px; width: 179px; border-style: solid; border-width: 2px; border-color: white; font-size:60px; color:grey; background-color: lightgrey;'')>+100</div>","32","","","","","","","","","","","",20,2
"html-keyboard-response",7,43426,"0.0-2.0-5.0","5987.5","","<div style='position: fixed; font-size: 18pt; padding: 10px; background-color: white; line-height: 1.5; top: 0; left: 50%; transform: translate(-50%, 0); width: 80%; max-width: 1250px; border-style: solid; border-color: red'>In this case the hidden card was worth +200 points, so the variable deck was a better than the sure-thing. <br><br>[press any key to continue]</div><div style='float: left; display: flex; justify-content: center; align-items: center; height: 250px; width: 179px; border-style: solid; border-width: 2px; border-color: black; font-size:60px;'')>+200</div><div style='float: left; height: 250px; width: 200px;')></div><div style='float: left; display: flex; justify-content: center; align-items: center; height: 250px; width: 179px; border-style: solid; border-width: 2px; border-color: white; font-size:60px; color:grey; background-color: lightgrey;'')>+100</div>","32","","","","","","","","","","","",20,2
"html-keyboard-response",8,47070,"0.0-2.0-6.0","3641.7000000476837","","<div style='position: fixed; font-size: 18pt; padding: 10px; background-color: white; line-height: 1.5; top: 0; left: 50%; transform: translate(-50%, 0); width: 80%; max-width: 1250px; border-style: solid; border-color: red'>On this trial, the hidden card was worth -150 points, so the sure-thing was better than the variable deck.<br><br>[press any key to continue]</div><div style='float: left; display: flex; justify-content: center; align-items: center; height: 250px; width: 179px; border-style: solid; border-width: 2px; border-color: black; font-size:60px;'')>-150</div><div style='float: left; height: 250px; width: 200px;')></div><div style='float: left; display: flex; justify-content: center; align-items: center; height: 250px; width: 179px; border-style: solid; border-width: 2px; border-color: white; font-size:60px; color:grey; background-color: lightgrey;'')>+100</div>","32","","","","","","","","","","","",20,2
"html-keyboard-response",9,54504,"0.0-2.0-7.0","7432.199999928474","","<div style='position: fixed; font-size: 18pt; padding: 10px; background-color: white; line-height: 1.5; top: 0; left: 50%; transform: translate(-50%, 0); width: 80%; max-width: 1250px; border-style: solid; border-color: red'>Every decision involves a different deck of cards with variable payouts. <br>Some decks are better on average and some decks are worse on average. <br><br>[press any key to continue]</div>","32","","","","","","","","","","","",20,2
"html-keyboard-response",10,64082,"0.0-2.0-8.0","9576.799999952316","","<div style='position: fixed; font-size: 18pt; padding: 10px; background-color: white; line-height: 1.5; top: 0; left: 50%; transform: translate(-50%, 0); width: 80%; max-width: 1250px; border-style: solid; border-color: red'>To give you a sense of whether the deck is good or bad, you will be shown 5 cards from each deck before you are asked to choose between the variable deck option and the sure-thing option. <br><br>To see these example cards you will press the SPACE BAR.<br><br>[press any key to continue]</div>","32","","","","","","","","","","","",20,2
"html-keyboard-response",11,75998,"0.0-2.0-9.0","11915","","<div style='position: fixed; font-size: 18pt; padding: 10px; background-color: white; line-height: 1.5; top: 0; left: 50%; transform: translate(-50%, 0); width: 80%; max-width: 1250px; border-style: solid; border-color: red'>To help you keep track of how well you are doing, your score will be shown at the bottom of the screen.  <br><br>You will start from 1000 points and can both gain and lose points. <br><br>Note that you will only gain or lose points when you choose between the two options.<br><br>[press any key to continue]</div>","32","","","","","","","","","","","",20,2
"html-keyboard-response",12,85511,"0.0-2.0-10.0","9511.699999928474","","<div style='position: fixed; font-size: 18pt; padding: 10px; background-color: white; line-height: 1.5; top: 0; left: 50%; transform: translate(-50%, 0); width: 80%; max-width: 1250px; border-style: solid; border-color: red'>In the experiment you will make decisions about 180 different decks. This should take about 20-30 minutes to complete. <br><br>When you are ready to begin we will try a few example games to make sure that everything makes sense.<br><br>[press any key to continue]</div>","32","","","","","","","","","","","",20,2
"html-keyboard-response",13,97961,"0.0-3.0-0.0-0.0","12447.199999928474","","<div style='float: left; border-style: solid; border-width: 2px; border-color: white; height: 250px; width: 179px;background-image: url(./img/card1.png); height: 250px; width: 179px;')></div><div style='position: fixed; font-size: 18pt; padding: 10px; background-color: white; line-height: 1.5; top: 0; left: 50%; transform: translate(-50%, 0); width: 80%; max-width: 1250px; border-style: solid; border-color: red'>The words """"New Deck"""" will appear each time there is a new deck with a different average payoff. The task automatically moves on after 1 second.  <br><br>For this practice game, press SPACE BAR to continue.</div><div style='position: fixed; bottom: 0;  left: 0%; width:100%; text-align: right'>Draw number: 0 of 5&nbsp<br>Deck number: 1 of 4&nbsp</div><div style='position: fixed; bottom: 50px; left: 0%; width:100%; font-size: 24pt'>Score: 1000</div>","32",1,"NewDeck",1,"","","","","","","","",20,2
"html-keyboard-response",14,100233,"0.0-3.0-0.0-1.0","2269.600000023842","","<div style='float: left; height: 250px; width: 200px;')></div><div style='float: left; border-style: solid; border-width: 2px; border-color: white; height: 250px; width: 179px;background-image: url(./img/card1.png); height: 250px; width: 179px;')></div><div style='float: left; height: 250px; width: 200px;')></div><div style='position: fixed; font-size: 18pt; padding: 10px; background-color: white; line-height: 1.5; top: 0; left: 50%; transform: translate(-50%, 0); width: 80%; max-width: 1250px; border-style: solid; border-color: red'>Press SPACE BAR to draw one card from the deck ...</div><div style='position: fixed; bottom: 0;  left: 0%; width:100%; text-align: right'>Draw number: 0 of 5&nbsp<br>Deck number: 1 of 4&nbsp</div><div style='position: fixed; bottom: 50px; left: 0%; width:100%; font-size: 24pt'>Score: 1000</div>","32",1,"forced_down",1,-100,-1,"","","","","","",20,2
"html-keyboard-response",15,111745,"0.0-3.0-0.0-2.0","11508.899999976158","","<div style='float: left; height: 250px; width: 200px;')></div><div style='float: left;z-index: 1; display: flex; justify-content: center; align-items: center; height: 250px; width: 179px; border-style: solid; border-style: solid; border-width: 2px; border-color: white; font-size:60px;'><div style='position: absolute; z-index: -1; background-image: url(./img/card2.png); height: 250px; width: 179px; opacity: 0.9;'></div>+100</div><div style='float: left; height: 250px; width: 200px;')></div><div style='position: fixed; bottom: 0;  left: 0%; width:100%; text-align: right'>Draw number: 1 of 5&nbsp<br>Deck number: 1 of 4&nbsp</div><div style='position: fixed; bottom: 50px; left: 0%; width:100%; font-size: 24pt'>Score: 1000</div><div style='position: fixed; font-size: 18pt; padding: 10px; background-color: white; line-height: 1.5; top: 0; left: 50%; transform: translate(-50%, 0); width: 80%; max-width: 1250px; border-style: solid; border-color: red'>This shows the payout from one draw from the deck.<br>Note that this example draw does not contribute to your score.<br><br>  In the experiment this payout disappears after 1 second. During these practice trials press SPACE BAR to move on.</div>","32",1,"forced_outcome",1,100,-1,"./img/card1.png","","","","","",20,2
"html-keyboard-response",16,113310,"0.0-3.0-0.0-3.0","1563.1000000238419","","<div style='float: left; height: 250px; width: 200px;')></div><div style='float: left; border-style: solid; border-width: 2px; border-color: white; height: 250px; width: 179px;background-image: url(./img/card1.png); height: 250px; width: 179px;')></div><div style='float: left; height: 250px; width: 200px;')></div><div style='position: fixed; font-size: 18pt; padding: 10px; background-color: white; line-height: 1.5; top: 0; left: 50%; transform: translate(-50%, 0); width: 80%; max-width: 1250px; border-style: solid; border-color: red'>Press SPACE BAR to draw one card from the deck ...</div><div style='position: fixed; bottom: 0;  left: 0%; width:100%; text-align: right'>Draw number: 1 of 5&nbsp<br>Deck number: 1 of 4&nbsp</div><div style='position: fixed; bottom: 50px; left: 0%; width:100%; font-size: 24pt'>Score: 1000</div>","32",1,"forced_down",1,-100,-1,"","","","","","",20,2
"html-keyboard-response",17,114862,"0.0-3.0-0.0-4.0","1549.7000000476837","","<div style='float: left; height: 250px; width: 200px;')></div><div style='float: left;z-index: 1; display: flex; justify-content: center; align-items: center; height: 250px; width: 179px; border-style: solid; border-style: solid; border-width: 2px; border-color: white; font-size:60px;'><div style='position: absolute; z-index: -1; background-image: url(./img/card2.png); height: 250px; width: 179px; opacity: 0.9;'></div>+70</div><div style='float: left; height: 250px; width: 200px;')></div><div style='position: fixed; bottom: 0;  left: 0%; width:100%; text-align: right'>Draw number: 2 of 5&nbsp<br>Deck number: 1 of 4&nbsp</div><div style='position: fixed; bottom: 50px; left: 0%; width:100%; font-size: 24pt'>Score: 1000</div><div style='position: fixed; font-size: 18pt; padding: 10px; background-color: white; line-height: 1.5; top: 0; left: 50%; transform: translate(-50%, 0); width: 80%; max-width: 1250px; border-style: solid; border-color: red'>This shows the payout from one draw from the deck.<br>Note that this example draw does not contribute to your score.<br><br>  In the experiment this payout disappears after 1 second. During these practice trials press SPACE BAR to move on.</div>","32",1,"forced_outcome",1,70,-1,"./img/card1.png","","","","","",20,2
"html-keyboard-response",18,116045,"0.0-3.0-0.0-5.0","1181.1000000238419","","<div style='float: left; height: 250px; width: 200px;')></div><div style='float: left; border-style: solid; border-width: 2px; border-color: white; height: 250px; width: 179px;background-image: url(./img/card1.png); height: 250px; width: 179px;')></div><div style='float: left; height: 250px; width: 200px;')></div><div style='position: fixed; font-size: 18pt; padding: 10px; background-color: white; line-height: 1.5; top: 0; left: 50%; transform: translate(-50%, 0); width: 80%; max-width: 1250px; border-style: solid; border-color: red'>Press SPACE BAR to draw one card from the deck ...</div><div style='position: fixed; bottom: 0;  left: 0%; width:100%; text-align: right'>Draw number: 2 of 5&nbsp<br>Deck number: 1 of 4&nbsp</div><div style='position: fixed; bottom: 50px; left: 0%; width:100%; font-size: 24pt'>Score: 1000</div>","32",1,"forced_down",1,-100,-1,"","","","","","",20,2
"html-keyboard-response",19,116777,"0.0-3.0-0.0-6.0","729.8999999761581","","<div style='float: left; height: 250px; width: 200px;')></div><div style='float: left;z-index: 1; display: flex; justify-content: center; align-items: center; height: 250px; width: 179px; border-style: solid; border-style: solid; border-width: 2px; border-color: white; font-size:60px;'><div style='position: absolute; z-index: -1; background-image: url(./img/card2.png); height: 250px; width: 179px; opacity: 0.9;'></div>+700</div><div style='float: left; height: 250px; width: 200px;')></div><div style='position: fixed; bottom: 0;  left: 0%; width:100%; text-align: right'>Draw number: 3 of 5&nbsp<br>Deck number: 1 of 4&nbsp</div><div style='position: fixed; bottom: 50px; left: 0%; width:100%; font-size: 24pt'>Score: 1000</div><div style='position: fixed; font-size: 18pt; padding: 10px; background-color: white; line-height: 1.5; top: 0; left: 50%; transform: translate(-50%, 0); width: 80%; max-width: 1250px; border-style: solid; border-color: red'>This shows the payout from one draw from the deck.<br>Note that this example draw does not contribute to your score.<br><br>  In the experiment this payout disappears after 1 second. During these practice trials press SPACE BAR to move on.</div>","32",1,"forced_outcome",1,700,-1,"./img/card1.png","","","","","",20,2
"html-keyboard-response",20,117239,"0.0-3.0-0.0-7.0","460.7999999523163","","<div style='float: left; height: 250px; width: 200px;')></div><div style='float: left; border-style: solid; border-width: 2px; border-color: white; height: 250px; width: 179px;background-image: url(./img/card1.png); height: 250px; width: 179px;')></div><div style='float: left; height: 250px; width: 200px;')></div><div style='position: fixed; font-size: 18pt; padding: 10px; background-color: white; line-height: 1.5; top: 0; left: 50%; transform: translate(-50%, 0); width: 80%; max-width: 1250px; border-style: solid; border-color: red'>Press SPACE BAR to draw one card from the deck ...</div><div style='position: fixed; bottom: 0;  left: 0%; width:100%; text-align: right'>Draw number: 3 of 5&nbsp<br>Deck number: 1 of 4&nbsp</div><div style='position: fixed; bottom: 50px; left: 0%; width:100%; font-size: 24pt'>Score: 1000</div>","32",1,"forced_down",1,-100,-1,"","","","","","",20,2
"html-keyboard-response",21,117904,"0.0-3.0-0.0-8.0","663.1000000238419","","<div style='float: left; height: 250px; width: 200px;')></div><div style='float: left;z-index: 1; display: flex; justify-content: center; align-items: center; height: 250px; width: 179px; border-style: solid; border-style: solid; border-width: 2px; border-color: white; font-size:60px;'><div style='position: absolute; z-index: -1; background-image: url(./img/card2.png); height: 250px; width: 179px; opacity: 0.9;'></div>+110</div><div style='float: left; height: 250px; width: 200px;')></div><div style='position: fixed; bottom: 0;  left: 0%; width:100%; text-align: right'>Draw number: 4 of 5&nbsp<br>Deck number: 1 of 4&nbsp</div><div style='position: fixed; bottom: 50px; left: 0%; width:100%; font-size: 24pt'>Score: 1000</div><div style='position: fixed; font-size: 18pt; padding: 10px; background-color: white; line-height: 1.5; top: 0; left: 50%; transform: translate(-50%, 0); width: 80%; max-width: 1250px; border-style: solid; border-color: red'>This shows the payout from one draw from the deck.<br>Note that this example draw does not contribute to your score.<br><br>  In the experiment this payout disappears after 1 second. During these practice trials press SPACE BAR to move on.</div>","32",1,"forced_outcome",1,110,-1,"./img/card1.png","","","","","",20,2
"html-keyboard-response",22,118750,"0.0-3.0-0.0-9.0","844","","<div style='float: left; height: 250px; width: 200px;')></div><div style='float: left; border-style: solid; border-width: 2px; border-color: white; height: 250px; width: 179px;background-image: url(./img/card1.png); height: 250px; width: 179px;')></div><div style='float: left; height: 250px; width: 200px;')></div><div style='position: fixed; font-size: 18pt; padding: 10px; background-color: white; line-height: 1.5; top: 0; left: 50%; transform: translate(-50%, 0); width: 80%; max-width: 1250px; border-style: solid; border-color: red'>Press SPACE BAR to draw one card from the deck ...</div><div style='position: fixed; bottom: 0;  left: 0%; width:100%; text-align: right'>Draw number: 4 of 5&nbsp<br>Deck number: 1 of 4&nbsp</div><div style='position: fixed; bottom: 50px; left: 0%; width:100%; font-size: 24pt'>Score: 1000</div>","32",1,"forced_down",1,-100,-1,"","","","","","",20,2
"html-keyboard-response",23,119739,"0.0-3.0-0.0-10.0","987.7999999523163","","<div style='float: left; height: 250px; width: 200px;')></div><div style='float: left;z-index: 1; display: flex; justify-content: center; align-items: center; height: 250px; width: 179px; border-style: solid; border-style: solid; border-width: 2px; border-color: white; font-size:60px;'><div style='position: absolute; z-index: -1; background-image: url(./img/card2.png); height: 250px; width: 179px; opacity: 0.9;'></div>+90</div><div style='float: left; height: 250px; width: 200px;')></div><div style='position: fixed; bottom: 0;  left: 0%; width:100%; text-align: right'>Draw number: 5 of 5&nbsp<br>Deck number: 1 of 4&nbsp</div><div style='position: fixed; bottom: 50px; left: 0%; width:100%; font-size: 24pt'>Score: 1000</div><div style='position: fixed; font-size: 18pt; padding: 10px; background-color: white; line-height: 1.5; top: 0; left: 50%; transform: translate(-50%, 0); width: 80%; max-width: 1250px; border-style: solid; border-color: red'>This shows the payout from one draw from the deck.<br>Note that this example draw does not contribute to your score.<br><br>  In the experiment this payout disappears after 1 second. During these practice trials press SPACE BAR to move on.</div>","32",1,"forced_outcome",1,90,-1,"./img/card1.png","","","","","",20,2
"html-keyboard-response",24,133062,"0.0-3.0-0.0-11.0","13319.700000047684","","<div style='float: left; display: flex; justify-content: center; align-items: center; height: 250px; width: 179px; border-style: solid; border-width: 2px; border-color: white; font-size:60px; color:grey; background-color: lightgrey;'')>+100</div><div style='float: left; height: 250px; width: 200px;')></div><div style='float: left; border-style: solid; border-width: 2px; border-color: white; height: 250px; width: 179px;background-image: url(./img/card1.png); height: 250px; width: 179px;')></div><div style='position: fixed; font-size: 18pt; padding: 10px; background-color: white; line-height: 1.5; top: 0; left: 50%; transform: translate(-50%, 0); width: 80%; max-width: 1250px; border-style: solid; border-color: red'>Now you have a choice.  Do you want to draw another card from the deck and get a random payout (which will be similar to the example draws you just made), or do you want a known offer for sure? <br><br>Note that the payout your receive from this choice contributes to your score. <br><br>Press F or J to choose left or right</div><div style='position: fixed; bottom: 0;  left: 0%; width:100%; text-align: right'>Choice&nbsp<br>Deck number: 1 of 4&nbsp</div><div style='position: fixed; bottom: 50px; left: 0%; width:100%; font-size: 24pt'>Score: 1000</div>","70",1,"choice_down",1,-1,0,"./img/card1.png",-1,-1,FALSE,100,"",20,2
"html-keyboard-response",25,139491,"0.0-3.0-0.0-12.0","6425.899999976158","","<div style='float: left; display: flex; justify-content: center; align-items: center; height: 250px; width: 179px; border-style: solid; border-width: 2px; border-color: black; font-size:60px;'')>+100</div><div style='float: left; height: 250px; width: 200px;')></div><div style='float: left; border-style: solid; border-width: 2px; border-color: white; height: 250px; width: 179px;background-image: url(./img/card1.png); height: 250px; width: 179px;')></div><div style='position: fixed; font-size: 18pt; padding: 10px; background-color: white; line-height: 1.5; top: 0; left: 50%; transform: translate(-50%, 0); width: 80%; max-width: 1250px; border-style: solid; border-color: red'>You chose the known outcome and earned 100 points. In the experiment this outcome will show for 1 second.  In this practice game please press SPACE BAR to continue.</div><div style='position: fixed; bottom: 0;  left: 0%; width:100%; text-align: right'>Choice&nbsp<br>Deck number: 1 of 4&nbsp</div><div style='position: fixed; bottom: 50px; left: 0%; width:100%; font-size: 24pt'>Score: 1100</div>","32",1,"choice_outcome",1,-1,0,"./img/card1.png","","","","",100,20,2
"html-keyboard-response",26,141252,"0.0-3.0-0.1-0.1","1759.1000000238419","","<div style='float: left; border-style: solid; border-width: 2px; border-color: white; height: 250px; width: 179px;background-image: url(./img/card1.png); height: 250px; width: 179px;')></div><div style='position: fixed; font-size: 18pt; padding: 10px; background-color: white; line-height: 1.5; top: 0; left: 50%; transform: translate(-50%, 0); width: 80%; max-width: 1250px; border-style: solid; border-color: red'>The words """"New Deck"""" will appear each time there is a new deck with a different average payoff. The task automatically moves on after 1 second.  <br><br>For this practice game, press SPACE BAR to continue.</div><div style='position: fixed; bottom: 0;  left: 0%; width:100%; text-align: right'>Draw number: 0 of 5&nbsp<br>Deck number: 2 of 4&nbsp</div><div style='position: fixed; bottom: 50px; left: 0%; width:100%; font-size: 24pt'>Score: 1100</div>","32",1,"NewDeck",2,"","","","","","","","",20,2
"html-keyboard-response",27,142785,"0.0-3.0-0.1-1.1","1531.2999999523163","","<div style='float: left; height: 250px; width: 200px;')></div><div style='float: left; border-style: solid; border-width: 2px; border-color: white; height: 250px; width: 179px;background-image: url(./img/card1.png); height: 250px; width: 179px;')></div><div style='float: left; height: 250px; width: 200px;')></div><div style='position: fixed; font-size: 18pt; padding: 10px; background-color: white; line-height: 1.5; top: 0; left: 50%; transform: translate(-50%, 0); width: 80%; max-width: 1250px; border-style: solid; border-color: red'>Press SPACE BAR to draw one card from the deck ...</div><div style='position: fixed; bottom: 0;  left: 0%; width:100%; text-align: right'>Draw number: 0 of 5&nbsp<br>Deck number: 2 of 4&nbsp</div><div style='position: fixed; bottom: 50px; left: 0%; width:100%; font-size: 24pt'>Score: 1100</div>","32",1,"forced_down",2,-100,-1,"","","","","","",20,2
"html-keyboard-response",28,145175,"0.0-3.0-0.1-2.1","2388.5","","<div style='float: left; height: 250px; width: 200px;')></div><div style='float: left;z-index: 1; display: flex; justify-content: center; align-items: center; height: 250px; width: 179px; border-style: solid; border-style: solid; border-width: 2px; border-color: white; font-size:60px;'><div style='position: absolute; z-index: -1; background-image: url(./img/card2.png); height: 250px; width: 179px; opacity: 0.9;'></div>+60</div><div style='float: left; height: 250px; width: 200px;')></div><div style='position: fixed; bottom: 0;  left: 0%; width:100%; text-align: right'>Draw number: 1 of 5&nbsp<br>Deck number: 2 of 4&nbsp</div><div style='position: fixed; bottom: 50px; left: 0%; width:100%; font-size: 24pt'>Score: 1100</div><div style='position: fixed; font-size: 18pt; padding: 10px; background-color: white; line-height: 1.5; top: 0; left: 50%; transform: translate(-50%, 0); width: 80%; max-width: 1250px; border-style: solid; border-color: red'>This shows the payout from one draw from the deck.<br>Note that this example draw does not contribute to your score.<br><br>  In the experiment this payout disappears after 1 second. During these practice trials press SPACE BAR to move on.</div>","32",1,"forced_outcome",2,60,-1,"./img/card1.png","","","","","",20,2
"html-keyboard-response",29,146844,"0.0-3.0-0.1-3.1","1666.8000000715256","","<div style='float: left; height: 250px; width: 200px;')></div><div style='float: left; border-style: solid; border-width: 2px; border-color: white; height: 250px; width: 179px;background-image: url(./img/card1.png); height: 250px; width: 179px;')></div><div style='float: left; height: 250px; width: 200px;')></div><div style='position: fixed; font-size: 18pt; padding: 10px; background-color: white; line-height: 1.5; top: 0; left: 50%; transform: translate(-50%, 0); width: 80%; max-width: 1250px; border-style: solid; border-color: red'>Press SPACE BAR to draw one card from the deck ...</div><div style='position: fixed; bottom: 0;  left: 0%; width:100%; text-align: right'>Draw number: 1 of 5&nbsp<br>Deck number: 2 of 4&nbsp</div><div style='position: fixed; bottom: 50px; left: 0%; width:100%; font-size: 24pt'>Score: 1100</div>","32",1,"forced_down",2,-100,-1,"","","","","","",20,2
"html-keyboard-response",30,147458,"0.0-3.0-0.1-4.1","611.6000000238419","","<div style='float: left; height: 250px; width: 200px;')></div><div style='float: left;z-index: 1; display: flex; justify-content: center; align-items: center; height: 250px; width: 179px; border-style: solid; border-style: solid; border-width: 2px; border-color: white; font-size:60px;'><div style='position: absolute; z-index: -1; background-image: url(./img/card2.png); height: 250px; width: 179px; opacity: 0.9;'></div>+80</div><div style='float: left; height: 250px; width: 200px;')></div><div style='position: fixed; bottom: 0;  left: 0%; width:100%; text-align: right'>Draw number: 2 of 5&nbsp<br>Deck number: 2 of 4&nbsp</div><div style='position: fixed; bottom: 50px; left: 0%; width:100%; font-size: 24pt'>Score: 1100</div><div style='position: fixed; font-size: 18pt; padding: 10px; background-color: white; line-height: 1.5; top: 0; left: 50%; transform: translate(-50%, 0); width: 80%; max-width: 1250px; border-style: solid; border-color: red'>This shows the payout from one draw from the deck.<br>Note that this example draw does not contribute to your score.<br><br>  In the experiment this payout disappears after 1 second. During these practice trials press SPACE BAR to move on.</div>","32",1,"forced_outcome",2,80,-1,"./img/card1.png","","","","","",20,2
"html-keyboard-response",31,147875,"0.0-3.0-0.1-5.1","416.10000002384186","","<div style='float: left; height: 250px; width: 200px;')></div><div style='float: left; border-style: solid; border-width: 2px; border-color: white; height: 250px; width: 179px;background-image: url(./img/card1.png); height: 250px; width: 179px;')></div><div style='float: left; height: 250px; width: 200px;')></div><div style='position: fixed; font-size: 18pt; padding: 10px; background-color: white; line-height: 1.5; top: 0; left: 50%; transform: translate(-50%, 0); width: 80%; max-width: 1250px; border-style: solid; border-color: red'>Press SPACE BAR to draw one card from the deck ...</div><div style='position: fixed; bottom: 0;  left: 0%; width:100%; text-align: right'>Draw number: 2 of 5&nbsp<br>Deck number: 2 of 4&nbsp</div><div style='position: fixed; bottom: 50px; left: 0%; width:100%; font-size: 24pt'>Score: 1100</div>","32",1,"forced_down",2,-100,-1,"","","","","","",20,2
"html-keyboard-response",32,148684,"0.0-3.0-0.1-6.1","807","","<div style='float: left; height: 250px; width: 200px;')></div><div style='float: left;z-index: 1; display: flex; justify-content: center; align-items: center; height: 250px; width: 179px; border-style: solid; border-style: solid; border-width: 2px; border-color: white; font-size:60px;'><div style='position: absolute; z-index: -1; background-image: url(./img/card2.png); height: 250px; width: 179px; opacity: 0.9;'></div>+60</div><div style='float: left; height: 250px; width: 200px;')></div><div style='position: fixed; bottom: 0;  left: 0%; width:100%; text-align: right'>Draw number: 3 of 5&nbsp<br>Deck number: 2 of 4&nbsp</div><div style='position: fixed; bottom: 50px; left: 0%; width:100%; font-size: 24pt'>Score: 1100</div><div style='position: fixed; font-size: 18pt; padding: 10px; background-color: white; line-height: 1.5; top: 0; left: 50%; transform: translate(-50%, 0); width: 80%; max-width: 1250px; border-style: solid; border-color: red'>This shows the payout from one draw from the deck.<br>Note that this example draw does not contribute to your score.<br><br>  In the experiment this payout disappears after 1 second. During these practice trials press SPACE BAR to move on.</div>","32",1,"forced_outcome",2,60,-1,"./img/card1.png","","","","","",20,2
"html-keyboard-response",33,149092,"0.0-3.0-0.1-7.1","406.2000000476837","","<div style='float: left; height: 250px; width: 200px;')></div><div style='float: left; border-style: solid; border-width: 2px; border-color: white; height: 250px; width: 179px;background-image: url(./img/card1.png); height: 250px; width: 179px;')></div><div style='float: left; height: 250px; width: 200px;')></div><div style='position: fixed; font-size: 18pt; padding: 10px; background-color: white; line-height: 1.5; top: 0; left: 50%; transform: translate(-50%, 0); width: 80%; max-width: 1250px; border-style: solid; border-color: red'>Press SPACE BAR to draw one card from the deck ...</div><div style='position: fixed; bottom: 0;  left: 0%; width:100%; text-align: right'>Draw number: 3 of 5&nbsp<br>Deck number: 2 of 4&nbsp</div><div style='position: fixed; bottom: 50px; left: 0%; width:100%; font-size: 24pt'>Score: 1100</div>","32",1,"forced_down",2,-100,-1,"","","","","","",20,2
"html-keyboard-response",34,149606,"0.0-3.0-0.1-8.1","511.59999990463257","","<div style='float: left; height: 250px; width: 200px;')></div><div style='float: left;z-index: 1; display: flex; justify-content: center; align-items: center; height: 250px; width: 179px; border-style: solid; border-style: solid; border-width: 2px; border-color: white; font-size:60px;'><div style='position: absolute; z-index: -1; background-image: url(./img/card2.png); height: 250px; width: 179px; opacity: 0.9;'></div>+70</div><div style='float: left; height: 250px; width: 200px;')></div><div style='position: fixed; bottom: 0;  left: 0%; width:100%; text-align: right'>Draw number: 4 of 5&nbsp<br>Deck number: 2 of 4&nbsp</div><div style='position: fixed; bottom: 50px; left: 0%; width:100%; font-size: 24pt'>Score: 1100</div><div style='position: fixed; font-size: 18pt; padding: 10px; background-color: white; line-height: 1.5; top: 0; left: 50%; transform: translate(-50%, 0); width: 80%; max-width: 1250px; border-style: solid; border-color: red'>This shows the payout from one draw from the deck.<br>Note that this example draw does not contribute to your score.<br><br>  In the experiment this payout disappears after 1 second. During these practice trials press SPACE BAR to move on.</div>","32",1,"forced_outcome",2,70,-1,"./img/card1.png","","","","","",20,2
"html-keyboard-response",35,150066,"0.0-3.0-0.1-9.1","458.09999990463257","","<div style='float: left; height: 250px; width: 200px;')></div><div style='float: left; border-style: solid; border-width: 2px; border-color: white; height: 250px; width: 179px;background-image: url(./img/card1.png); height: 250px; width: 179px;')></div><div style='float: left; height: 250px; width: 200px;')></div><div style='position: fixed; font-size: 18pt; padding: 10px; background-color: white; line-height: 1.5; top: 0; left: 50%; transform: translate(-50%, 0); width: 80%; max-width: 1250px; border-style: solid; border-color: red'>Press SPACE BAR to draw one card from the deck ...</div><div style='position: fixed; bottom: 0;  left: 0%; width:100%; text-align: right'>Draw number: 4 of 5&nbsp<br>Deck number: 2 of 4&nbsp</div><div style='position: fixed; bottom: 50px; left: 0%; width:100%; font-size: 24pt'>Score: 1100</div>","32",1,"forced_down",2,-100,-1,"","","","","","",20,2
"html-keyboard-response",36,150562,"0.0-3.0-0.1-10.1","494.10000002384186","","<div style='float: left; height: 250px; width: 200px;')></div><div style='float: left;z-index: 1; display: flex; justify-content: center; align-items: center; height: 250px; width: 179px; border-style: solid; border-style: solid; border-width: 2px; border-color: white; font-size:60px;'><div style='position: absolute; z-index: -1; background-image: url(./img/card2.png); height: 250px; width: 179px; opacity: 0.9;'></div>+60</div><div style='float: left; height: 250px; width: 200px;')></div><div style='position: fixed; bottom: 0;  left: 0%; width:100%; text-align: right'>Draw number: 5 of 5&nbsp<br>Deck number: 2 of 4&nbsp</div><div style='position: fixed; bottom: 50px; left: 0%; width:100%; font-size: 24pt'>Score: 1100</div><div style='position: fixed; font-size: 18pt; padding: 10px; background-color: white; line-height: 1.5; top: 0; left: 50%; transform: translate(-50%, 0); width: 80%; max-width: 1250px; border-style: solid; border-color: red'>This shows the payout from one draw from the deck.<br>Note that this example draw does not contribute to your score.<br><br>  In the experiment this payout disappears after 1 second. During these practice trials press SPACE BAR to move on.</div>","32",1,"forced_outcome",2,60,-1,"./img/card1.png","","","","","",20,2
"html-keyboard-response",37,152790,"0.0-3.0-0.1-11.1","2226","","<div style='float: left; border-style: solid; border-width: 2px; border-color: white; height: 250px; width: 179px;background-image: url(./img/card1.png); height: 250px; width: 179px;')></div><div style='float: left; height: 250px; width: 200px;')></div><div style='float: left; display: flex; justify-content: center; align-items: center; height: 250px; width: 179px; border-style: solid; border-width: 2px; border-color: white; font-size:60px; color:grey; background-color: lightgrey;'')>+60</div><div style='position: fixed; font-size: 18pt; padding: 10px; background-color: white; line-height: 1.5; top: 0; left: 50%; transform: translate(-50%, 0); width: 80%; max-width: 1250px; border-style: solid; border-color: red'>Now you have a choice.  Do you want to draw another card from the deck and get a random payout (which will be similar to the example draws you just made), or do you want a known offer for sure? <br><br>Note that the payout your receive from this choice contributes to your score. <br><br>Press F or J to choose left or right</div><div style='position: fixed; bottom: 0;  left: 0%; width:100%; text-align: right'>Choice&nbsp<br>Deck number: 2 of 4&nbsp</div><div style='position: fixed; bottom: 50px; left: 0%; width:100%; font-size: 24pt'>Score: 1100</div>","70",1,"choice_down",2,-1,1,"./img/card1.png",-1,-1,TRUE,60,"",20,2
"html-keyboard-response",38,154406,"0.0-3.0-0.1-12.1","1614.1999999284744","","<div style='float: left;z-index: 1; display: flex; justify-content: center; align-items: center; height: 250px; width: 179px; border-style: solid; border-style: solid; border-width: 2px; border-color: white; font-size:60px;'><div style='position: absolute; z-index: -1; background-image: url(./img/card2.png); height: 250px; width: 179px; opacity: 0.9;'></div>+40</div><div style='float: left; height: 250px; width: 200px;')></div><div style='float: left; display: flex; justify-content: center; align-items: center; height: 250px; width: 179px; border-style: solid; border-width: 2px; border-color: white; font-size:60px; color:grey; background-color: lightgrey;'')>+60</div><div style='position: fixed; font-size: 18pt; padding: 10px; background-color: white; line-height: 1.5; top: 0; left: 50%; transform: translate(-50%, 0); width: 80%; max-width: 1250px; border-style: solid; border-color: red'>You chose another draw from the deck and earned 40 points. In the experiment this outcome will show for 1 second.  In this practice game please press SPACE BAR to continue.</div><div style='position: fixed; bottom: 0;  left: 0%; width:100%; text-align: right'>Choice&nbsp<br>Deck number: 2 of 4&nbsp</div><div style='position: fixed; bottom: 50px; left: 0%; width:100%; font-size: 24pt'>Score: 1140</div>","32",1,"choice_outcome",2,-1,1,"./img/card2.png","","","","",40,20,2
"html-keyboard-response",39,155540,"0.0-3.0-0.2-0.2","1132.2999999523163","","<div style='float: left; border-style: solid; border-width: 2px; border-color: white; height: 250px; width: 179px;background-image: url(./img/card1.png); height: 250px; width: 179px;')></div><div style='position: fixed; font-size: 18pt; padding: 10px; background-color: white; line-height: 1.5; top: 0; left: 50%; transform: translate(-50%, 0); width: 80%; max-width: 1250px; border-style: solid; border-color: red'>The words """"New Deck"""" will appear each time there is a new deck with a different average payoff. The task automatically moves on after 1 second.  <br><br>For this practice game, press SPACE BAR to continue.</div><div style='position: fixed; bottom: 0;  left: 0%; width:100%; text-align: right'>Draw number: 0 of 5&nbsp<br>Deck number: 3 of 4&nbsp</div><div style='position: fixed; bottom: 50px; left: 0%; width:100%; font-size: 24pt'>Score: 1140</div>","32",1,"NewDeck",3,"","","","","","","","",20,2
"html-keyboard-response",40,156205,"0.0-3.0-0.2-1.2","663","","<div style='float: left; height: 250px; width: 200px;')></div><div style='float: left; border-style: solid; border-width: 2px; border-color: white; height: 250px; width: 179px;background-image: url(./img/card1.png); height: 250px; width: 179px;')></div><div style='float: left; height: 250px; width: 200px;')></div><div style='position: fixed; font-size: 18pt; padding: 10px; background-color: white; line-height: 1.5; top: 0; left: 50%; transform: translate(-50%, 0); width: 80%; max-width: 1250px; border-style: solid; border-color: red'>Press SPACE BAR to draw one card from the deck ...</div><div style='position: fixed; bottom: 0;  left: 0%; width:100%; text-align: right'>Draw number: 0 of 5&nbsp<br>Deck number: 3 of 4&nbsp</div><div style='position: fixed; bottom: 50px; left: 0%; width:100%; font-size: 24pt'>Score: 1140</div>","32",1,"forced_down",3,-100,-1,"","","","","","",20,2
"html-keyboard-response",41,156876,"0.0-3.0-0.2-2.2","669.1000000238419","","<div style='float: left; height: 250px; width: 200px;')></div><div style='float: left;z-index: 1; display: flex; justify-content: center; align-items: center; height: 250px; width: 179px; border-style: solid; border-width: 2px; border-color: white; font-size:60px;'><div style='position: absolute; z-index: -1; background-image: url(./img/card2.png); height: 250px; width: 179px; opacity: 0.9;'></div>-50</div><div style='float: left; height: 250px; width: 200px;')></div><div style='position: fixed; bottom: 0;  left: 0%; width:100%; text-align: right'>Draw number: 1 of 5&nbsp<br>Deck number: 3 of 4&nbsp</div><div style='position: fixed; bottom: 50px; left: 0%; width:100%; font-size: 24pt'>Score: 1140</div><div style='position: fixed; font-size: 18pt; padding: 10px; background-color: white; line-height: 1.5; top: 0; left: 50%; transform: translate(-50%, 0); width: 80%; max-width: 1250px; border-style: solid; border-color: red'>This shows the payout from one draw from the deck.<br>Note that this example draw does not contribute to your score.<br><br>  In the experiment this payout disappears after 1 second. During these practice trials press SPACE BAR to move on.</div>","32",1,"forced_outcome",3,-50,-1,"./img/card1.png","","","","","",20,2
"html-keyboard-response",42,157345,"0.0-3.0-0.2-3.2","466.59999990463257","","<div style='float: left; height: 250px; width: 200px;')></div><div style='float: left; border-style: solid; border-width: 2px; border-color: white; height: 250px; width: 179px;background-image: url(./img/card1.png); height: 250px; width: 179px;')></div><div style='float: left; height: 250px; width: 200px;')></div><div style='position: fixed; font-size: 18pt; padding: 10px; background-color: white; line-height: 1.5; top: 0; left: 50%; transform: translate(-50%, 0); width: 80%; max-width: 1250px; border-style: solid; border-color: red'>Press SPACE BAR to draw one card from the deck ...</div><div style='position: fixed; bottom: 0;  left: 0%; width:100%; text-align: right'>Draw number: 1 of 5&nbsp<br>Deck number: 3 of 4&nbsp</div><div style='position: fixed; bottom: 50px; left: 0%; width:100%; font-size: 24pt'>Score: 1140</div>","32",1,"forced_down",3,-100,-1,"","","","","","",20,2
"html-keyboard-response",43,157666,"0.0-3.0-0.2-4.2","319.39999997615814","","<div style='float: left; height: 250px; width: 200px;')></div><div style='float: left;z-index: 1; display: flex; justify-content: center; align-items: center; height: 250px; width: 179px; border-style: solid; border-width: 2px; border-color: white; font-size:60px;'><div style='position: absolute; z-index: -1; background-image: url(./img/card2.png); height: 250px; width: 179px; opacity: 0.9;'></div>-70</div><div style='float: left; height: 250px; width: 200px;')></div><div style='position: fixed; bottom: 0;  left: 0%; width:100%; text-align: right'>Draw number: 2 of 5&nbsp<br>Deck number: 3 of 4&nbsp</div><div style='position: fixed; bottom: 50px; left: 0%; width:100%; font-size: 24pt'>Score: 1140</div><div style='position: fixed; font-size: 18pt; padding: 10px; background-color: white; line-height: 1.5; top: 0; left: 50%; transform: translate(-50%, 0); width: 80%; max-width: 1250px; border-style: solid; border-color: red'>This shows the payout from one draw from the deck.<br>Note that this example draw does not contribute to your score.<br><br>  In the experiment this payout disappears after 1 second. During these practice trials press SPACE BAR to move on.</div>","32",1,"forced_outcome",3,-70,-1,"./img/card1.png","","","","","",20,2
"html-keyboard-response",44,158029,"0.0-3.0-0.2-5.2","362.1999999284744","","<div style='float: left; height: 250px; width: 200px;')></div><div style='float: left; border-style: solid; border-width: 2px; border-color: white; height: 250px; width: 179px;background-image: url(./img/card1.png); height: 250px; width: 179px;')></div><div style='float: left; height: 250px; width: 200px;')></div><div style='position: fixed; font-size: 18pt; padding: 10px; background-color: white; line-height: 1.5; top: 0; left: 50%; transform: translate(-50%, 0); width: 80%; max-width: 1250px; border-style: solid; border-color: red'>Press SPACE BAR to draw one card from the deck ...</div><div style='position: fixed; bottom: 0;  left: 0%; width:100%; text-align: right'>Draw number: 2 of 5&nbsp<br>Deck number: 3 of 4&nbsp</div><div style='position: fixed; bottom: 50px; left: 0%; width:100%; font-size: 24pt'>Score: 1140</div>","32",1,"forced_down",3,-100,-1,"","","","","","",20,2
"html-keyboard-response",45,158524,"0.0-3.0-0.2-6.2","493.40000009536743","","<div style='float: left; height: 250px; width: 200px;')></div><div style='float: left;z-index: 1; display: flex; justify-content: center; align-items: center; height: 250px; width: 179px; border-style: solid; border-width: 2px; border-color: white; font-size:60px;'><div style='position: absolute; z-index: -1; background-image: url(./img/card2.png); height: 250px; width: 179px; opacity: 0.9;'></div>-10</div><div style='float: left; height: 250px; width: 200px;')></div><div style='position: fixed; bottom: 0;  left: 0%; width:100%; text-align: right'>Draw number: 3 of 5&nbsp<br>Deck number: 3 of 4&nbsp</div><div style='position: fixed; bottom: 50px; left: 0%; width:100%; font-size: 24pt'>Score: 1140</div><div style='position: fixed; font-size: 18pt; padding: 10px; background-color: white; line-height: 1.5; top: 0; left: 50%; transform: translate(-50%, 0); width: 80%; max-width: 1250px; border-style: solid; border-color: red'>This shows the payout from one draw from the deck.<br>Note that this example draw does not contribute to your score.<br><br>  In the experiment this payout disappears after 1 second. During these practice trials press SPACE BAR to move on.</div>","32",1,"forced_outcome",3,-10,-1,"./img/card1.png","","","","","",20,2
"html-keyboard-response",46,158946,"0.0-3.0-0.2-7.2","419.89999997615814","","<div style='float: left; height: 250px; width: 200px;')></div><div style='float: left; border-style: solid; border-width: 2px; border-color: white; height: 250px; width: 179px;background-image: url(./img/card1.png); height: 250px; width: 179px;')></div><div style='float: left; height: 250px; width: 200px;')></div><div style='position: fixed; font-size: 18pt; padding: 10px; background-color: white; line-height: 1.5; top: 0; left: 50%; transform: translate(-50%, 0); width: 80%; max-width: 1250px; border-style: solid; border-color: red'>Press SPACE BAR to draw one card from the deck ...</div><div style='position: fixed; bottom: 0;  left: 0%; width:100%; text-align: right'>Draw number: 3 of 5&nbsp<br>Deck number: 3 of 4&nbsp</div><div style='position: fixed; bottom: 50px; left: 0%; width:100%; font-size: 24pt'>Score: 1140</div>","32",1,"forced_down",3,-100,-1,"","","","","","",20,2
"html-keyboard-response",47,159448,"0.0-3.0-0.2-8.2","500.10000002384186","","<div style='float: left; height: 250px; width: 200px;')></div><div style='float: left;z-index: 1; display: flex; justify-content: center; align-items: center; height: 250px; width: 179px; border-style: solid; border-width: 2px; border-color: white; font-size:60px;'><div style='position: absolute; z-index: -1; background-image: url(./img/card2.png); height: 250px; width: 179px; opacity: 0.9;'></div>-60</div><div style='float: left; height: 250px; width: 200px;')></div><div style='position: fixed; bottom: 0;  left: 0%; width:100%; text-align: right'>Draw number: 4 of 5&nbsp<br>Deck number: 3 of 4&nbsp</div><div style='position: fixed; bottom: 50px; left: 0%; width:100%; font-size: 24pt'>Score: 1140</div><div style='position: fixed; font-size: 18pt; padding: 10px; background-color: white; line-height: 1.5; top: 0; left: 50%; transform: translate(-50%, 0); width: 80%; max-width: 1250px; border-style: solid; border-color: red'>This shows the payout from one draw from the deck.<br>Note that this example draw does not contribute to your score.<br><br>  In the experiment this payout disappears after 1 second. During these practice trials press SPACE BAR to move on.</div>","32",1,"forced_outcome",3,-60,-1,"./img/card1.png","","","","","",20,2
"html-keyboard-response",48,160131,"0.0-3.0-0.2-9.2","682.5999999046326","","<div style='float: left; height: 250px; width: 200px;')></div><div style='float: left; border-style: solid; border-width: 2px; border-color: white; height: 250px; width: 179px;background-image: url(./img/card1.png); height: 250px; width: 179px;')></div><div style='float: left; height: 250px; width: 200px;')></div><div style='position: fixed; font-size: 18pt; padding: 10px; background-color: white; line-height: 1.5; top: 0; left: 50%; transform: translate(-50%, 0); width: 80%; max-width: 1250px; border-style: solid; border-color: red'>Press SPACE BAR to draw one card from the deck ...</div><div style='position: fixed; bottom: 0;  left: 0%; width:100%; text-align: right'>Draw number: 4 of 5&nbsp<br>Deck number: 3 of 4&nbsp</div><div style='position: fixed; bottom: 50px; left: 0%; width:100%; font-size: 24pt'>Score: 1140</div>","32",1,"forced_down",3,-100,-1,"","","","","","",20,2
"html-keyboard-response",49,161021,"0.0-3.0-0.2-10.2","887.3999999761581","","<div style='float: left; height: 250px; width: 200px;')></div><div style='float: left;z-index: 1; display: flex; justify-content: center; align-items: center; height: 250px; width: 179px; border-style: solid; border-width: 2px; border-color: white; font-size:60px;'><div style='position: absolute; z-index: -1; background-image: url(./img/card2.png); height: 250px; width: 179px; opacity: 0.9;'></div>-530</div><div style='float: left; height: 250px; width: 200px;')></div><div style='position: fixed; bottom: 0;  left: 0%; width:100%; text-align: right'>Draw number: 5 of 5&nbsp<br>Deck number: 3 of 4&nbsp</div><div style='position: fixed; bottom: 50px; left: 0%; width:100%; font-size: 24pt'>Score: 1140</div><div style='position: fixed; font-size: 18pt; padding: 10px; background-color: white; line-height: 1.5; top: 0; left: 50%; transform: translate(-50%, 0); width: 80%; max-width: 1250px; border-style: solid; border-color: red'>This shows the payout from one draw from the deck.<br>Note that this example draw does not contribute to your score.<br><br>  In the experiment this payout disappears after 1 second. During these practice trials press SPACE BAR to move on.</div>","32",1,"forced_outcome",3,-530,-1,"./img/card1.png","","","","","",20,2
"html-keyboard-response",50,162132,"0.0-3.0-0.2-11.2","1109.5999999046326","","<div style='float: left; border-style: solid; border-width: 2px; border-color: white; height: 250px; width: 179px;background-image: url(./img/card1.png); height: 250px; width: 179px;')></div><div style='float: left; height: 250px; width: 200px;')></div><div style='float: left; display: flex; justify-content: center; align-items: center; height: 250px; width: 179px; border-style: solid; border-width: 2px; border-color: white; font-size:60px; color:grey; background-color: lightgrey;'')>-90</div><div style='position: fixed; font-size: 18pt; padding: 10px; background-color: white; line-height: 1.5; top: 0; left: 50%; transform: translate(-50%, 0); width: 80%; max-width: 1250px; border-style: solid; border-color: red'>Now you have a choice.  Do you want to draw another card from the deck and get a random payout (which will be similar to the example draws you just made), or do you want a known offer for sure? <br><br>Note that the payout your receive from this choice contributes to your score. <br><br>Press F or J to choose left or right</div><div style='position: fixed; bottom: 0;  left: 0%; width:100%; text-align: right'>Choice&nbsp<br>Deck number: 3 of 4&nbsp</div><div style='position: fixed; bottom: 50px; left: 0%; width:100%; font-size: 24pt'>Score: 1140</div>","70",1,"choice_down",3,-1,1,"./img/card1.png",-1,-1,TRUE,-90,"",20,2
"html-keyboard-response",51,163592,"0.0-3.0-0.2-12.2","1458.1000000238419","","<div style='float: left;z-index: 1; display: flex; justify-content: center; align-items: center; height: 250px; width: 179px; border-style: solid; border-width: 2px; border-color: white; font-size:60px;'><div style='position: absolute; z-index: -1; background-image: url(./img/card2.png); height: 250px; width: 179px; opacity: 0.9;'></div>-60</div><div style='float: left; height: 250px; width: 200px;')></div><div style='float: left; display: flex; justify-content: center; align-items: center; height: 250px; width: 179px; border-style: solid; border-width: 2px; border-color: white; font-size:60px; color:grey; background-color: lightgrey;'')>-90</div><div style='position: fixed; font-size: 18pt; padding: 10px; background-color: white; line-height: 1.5; top: 0; left: 50%; transform: translate(-50%, 0); width: 80%; max-width: 1250px; border-style: solid; border-color: red'>You chose another draw from the deck and earned -60 points. In the experiment this outcome will show for 1 second.  In this practice game please press SPACE BAR to continue.</div><div style='position: fixed; bottom: 0;  left: 0%; width:100%; text-align: right'>Choice&nbsp<br>Deck number: 3 of 4&nbsp</div><div style='position: fixed; bottom: 50px; left: 0%; width:100%; font-size: 24pt'>Score: 1080</div>","32",1,"choice_outcome",3,-1,1,"./img/card2.png","","","","",-60,20,2
"html-keyboard-response",52,164416,"0.0-3.0-0.3-0.3","822.2000000476837","","<div style='float: left; border-style: solid; border-width: 2px; border-color: white; height: 250px; width: 179px;background-image: url(./img/card1.png); height: 250px; width: 179px;')></div><div style='position: fixed; font-size: 18pt; padding: 10px; background-color: white; line-height: 1.5; top: 0; left: 50%; transform: translate(-50%, 0); width: 80%; max-width: 1250px; border-style: solid; border-color: red'>The words """"New Deck"""" will appear each time there is a new deck with a different average payoff. The task automatically moves on after 1 second.  <br><br>For this practice game, press SPACE BAR to continue.</div><div style='position: fixed; bottom: 0;  left: 0%; width:100%; text-align: right'>Draw number: 0 of 5&nbsp<br>Deck number: 4 of 4&nbsp</div><div style='position: fixed; bottom: 50px; left: 0%; width:100%; font-size: 24pt'>Score: 1080</div>","32",1,"NewDeck",4,"","","","","","","","",20,2
"html-keyboard-response",53,164937,"0.0-3.0-0.3-1.3","519.1000000238419","","<div style='float: left; height: 250px; width: 200px;')></div><div style='float: left; border-style: solid; border-width: 2px; border-color: white; height: 250px; width: 179px;background-image: url(./img/card1.png); height: 250px; width: 179px;')></div><div style='float: left; height: 250px; width: 200px;')></div><div style='position: fixed; font-size: 18pt; padding: 10px; background-color: white; line-height: 1.5; top: 0; left: 50%; transform: translate(-50%, 0); width: 80%; max-width: 1250px; border-style: solid; border-color: red'>Press SPACE BAR to draw one card from the deck ...</div><div style='position: fixed; bottom: 0;  left: 0%; width:100%; text-align: right'>Draw number: 0 of 5&nbsp<br>Deck number: 4 of 4&nbsp</div><div style='position: fixed; bottom: 50px; left: 0%; width:100%; font-size: 24pt'>Score: 1080</div>","32",1,"forced_down",4,-100,-1,"","","","","","",20,2
"html-keyboard-response",54,165280,"0.0-3.0-0.3-2.3","341.10000002384186","","<div style='float: left; height: 250px; width: 200px;')></div><div style='float: left;z-index: 1; display: flex; justify-content: center; align-items: center; height: 250px; width: 179px; border-style: solid; border-width: 2px; border-color: white; font-size:60px;'><div style='position: absolute; z-index: -1; background-image: url(./img/card2.png); height: 250px; width: 179px; opacity: 0.9;'></div>-40</div><div style='float: left; height: 250px; width: 200px;')></div><div style='position: fixed; bottom: 0;  left: 0%; width:100%; text-align: right'>Draw number: 1 of 5&nbsp<br>Deck number: 4 of 4&nbsp</div><div style='position: fixed; bottom: 50px; left: 0%; width:100%; font-size: 24pt'>Score: 1080</div><div style='position: fixed; font-size: 18pt; padding: 10px; background-color: white; line-height: 1.5; top: 0; left: 50%; transform: translate(-50%, 0); width: 80%; max-width: 1250px; border-style: solid; border-color: red'>This shows the payout from one draw from the deck.<br>Note that this example draw does not contribute to your score.<br><br>  In the experiment this payout disappears after 1 second. During these practice trials press SPACE BAR to move on.</div>","32",1,"forced_outcome",4,-40,-1,"./img/card1.png","","","","","",20,2
"html-keyboard-response",55,165591,"0.0-3.0-0.3-3.3","308.7999999523163","","<div style='float: left; height: 250px; width: 200px;')></div><div style='float: left; border-style: solid; border-width: 2px; border-color: white; height: 250px; width: 179px;background-image: url(./img/card1.png); height: 250px; width: 179px;')></div><div style='float: left; height: 250px; width: 200px;')></div><div style='position: fixed; font-size: 18pt; padding: 10px; background-color: white; line-height: 1.5; top: 0; left: 50%; transform: translate(-50%, 0); width: 80%; max-width: 1250px; border-style: solid; border-color: red'>Press SPACE BAR to draw one card from the deck ...</div><div style='position: fixed; bottom: 0;  left: 0%; width:100%; text-align: right'>Draw number: 1 of 5&nbsp<br>Deck number: 4 of 4&nbsp</div><div style='position: fixed; bottom: 50px; left: 0%; width:100%; font-size: 24pt'>Score: 1080</div>","32",1,"forced_down",4,-100,-1,"","","","","","",20,2
"html-keyboard-response",56,165926,"0.0-3.0-0.3-4.3","332.7000000476837","","<div style='float: left; height: 250px; width: 200px;')></div><div style='float: left;z-index: 1; display: flex; justify-content: center; align-items: center; height: 250px; width: 179px; border-style: solid; border-width: 2px; border-color: white; font-size:60px;'><div style='position: absolute; z-index: -1; background-image: url(./img/card2.png); height: 250px; width: 179px; opacity: 0.9;'></div>-50</div><div style='float: left; height: 250px; width: 200px;')></div><div style='position: fixed; bottom: 0;  left: 0%; width:100%; text-align: right'>Draw number: 2 of 5&nbsp<br>Deck number: 4 of 4&nbsp</div><div style='position: fixed; bottom: 50px; left: 0%; width:100%; font-size: 24pt'>Score: 1080</div><div style='position: fixed; font-size: 18pt; padding: 10px; background-color: white; line-height: 1.5; top: 0; left: 50%; transform: translate(-50%, 0); width: 80%; max-width: 1250px; border-style: solid; border-color: red'>This shows the payout from one draw from the deck.<br>Note that this example draw does not contribute to your score.<br><br>  In the experiment this payout disappears after 1 second. During these practice trials press SPACE BAR to move on.</div>","32",1,"forced_outcome",4,-50,-1,"./img/card1.png","","","","","",20,2
"html-keyboard-response",57,166288,"0.0-3.0-0.3-5.3","360.1999999284744","","<div style='float: left; height: 250px; width: 200px;')></div><div style='float: left; border-style: solid; border-width: 2px; border-color: white; height: 250px; width: 179px;background-image: url(./img/card1.png); height: 250px; width: 179px;')></div><div style='float: left; height: 250px; width: 200px;')></div><div style='position: fixed; font-size: 18pt; padding: 10px; background-color: white; line-height: 1.5; top: 0; left: 50%; transform: translate(-50%, 0); width: 80%; max-width: 1250px; border-style: solid; border-color: red'>Press SPACE BAR to draw one card from the deck ...</div><div style='position: fixed; bottom: 0;  left: 0%; width:100%; text-align: right'>Draw number: 2 of 5&nbsp<br>Deck number: 4 of 4&nbsp</div><div style='position: fixed; bottom: 50px; left: 0%; width:100%; font-size: 24pt'>Score: 1080</div>","32",1,"forced_down",4,-100,-1,"","","","","","",20,2
"html-keyboard-response",58,166650,"0.0-3.0-0.3-6.3","360.90000009536743","","<div style='float: left; height: 250px; width: 200px;')></div><div style='float: left;z-index: 1; display: flex; justify-content: center; align-items: center; height: 250px; width: 179px; border-style: solid; border-width: 2px; border-color: white; font-size:60px;'><div style='position: absolute; z-index: -1; background-image: url(./img/card2.png); height: 250px; width: 179px; opacity: 0.9;'></div>-50</div><div style='float: left; height: 250px; width: 200px;')></div><div style='position: fixed; bottom: 0;  left: 0%; width:100%; text-align: right'>Draw number: 3 of 5&nbsp<br>Deck number: 4 of 4&nbsp</div><div style='position: fixed; bottom: 50px; left: 0%; width:100%; font-size: 24pt'>Score: 1080</div><div style='position: fixed; font-size: 18pt; padding: 10px; background-color: white; line-height: 1.5; top: 0; left: 50%; transform: translate(-50%, 0); width: 80%; max-width: 1250px; border-style: solid; border-color: red'>This shows the payout from one draw from the deck.<br>Note that this example draw does not contribute to your score.<br><br>  In the experiment this payout disappears after 1 second. During these practice trials press SPACE BAR to move on.</div>","32",1,"forced_outcome",4,-50,-1,"./img/card1.png","","","","","",20,2
"html-keyboard-response",59,167023,"0.0-3.0-0.3-7.3","371.39999997615814","","<div style='float: left; height: 250px; width: 200px;')></div><div style='float: left; border-style: solid; border-width: 2px; border-color: white; height: 250px; width: 179px;background-image: url(./img/card1.png); height: 250px; width: 179px;')></div><div style='float: left; height: 250px; width: 200px;')></div><div style='position: fixed; font-size: 18pt; padding: 10px; background-color: white; line-height: 1.5; top: 0; left: 50%; transform: translate(-50%, 0); width: 80%; max-width: 1250px; border-style: solid; border-color: red'>Press SPACE BAR to draw one card from the deck ...</div><div style='position: fixed; bottom: 0;  left: 0%; width:100%; text-align: right'>Draw number: 3 of 5&nbsp<br>Deck number: 4 of 4&nbsp</div><div style='position: fixed; bottom: 50px; left: 0%; width:100%; font-size: 24pt'>Score: 1080</div>","32",1,"forced_down",4,-100,-1,"","","","","","",20,2
"html-keyboard-response",60,167421,"0.0-3.0-0.3-8.3","396.2999999523163","","<div style='float: left; height: 250px; width: 200px;')></div><div style='float: left;z-index: 1; display: flex; justify-content: center; align-items: center; height: 250px; width: 179px; border-style: solid; border-width: 2px; border-color: white; font-size:60px;'><div style='position: absolute; z-index: -1; background-image: url(./img/card2.png); height: 250px; width: 179px; opacity: 0.9;'></div>-60</div><div style='float: left; height: 250px; width: 200px;')></div><div style='position: fixed; bottom: 0;  left: 0%; width:100%; text-align: right'>Draw number: 4 of 5&nbsp<br>Deck number: 4 of 4&nbsp</div><div style='position: fixed; bottom: 50px; left: 0%; width:100%; font-size: 24pt'>Score: 1080</div><div style='position: fixed; font-size: 18pt; padding: 10px; background-color: white; line-height: 1.5; top: 0; left: 50%; transform: translate(-50%, 0); width: 80%; max-width: 1250px; border-style: solid; border-color: red'>This shows the payout from one draw from the deck.<br>Note that this example draw does not contribute to your score.<br><br>  In the experiment this payout disappears after 1 second. During these practice trials press SPACE BAR to move on.</div>","32",1,"forced_outcome",4,-60,-1,"./img/card1.png","","","","","",20,2
"html-keyboard-response",61,167971,"0.0-3.0-0.3-9.3","547.6000000238419","","<div style='float: left; height: 250px; width: 200px;')></div><div style='float: left; border-style: solid; border-width: 2px; border-color: white; height: 250px; width: 179px;background-image: url(./img/card1.png); height: 250px; width: 179px;')></div><div style='float: left; height: 250px; width: 200px;')></div><div style='position: fixed; font-size: 18pt; padding: 10px; background-color: white; line-height: 1.5; top: 0; left: 50%; transform: translate(-50%, 0); width: 80%; max-width: 1250px; border-style: solid; border-color: red'>Press SPACE BAR to draw one card from the deck ...</div><div style='position: fixed; bottom: 0;  left: 0%; width:100%; text-align: right'>Draw number: 4 of 5&nbsp<br>Deck number: 4 of 4&nbsp</div><div style='position: fixed; bottom: 50px; left: 0%; width:100%; font-size: 24pt'>Score: 1080</div>","32",1,"forced_down",4,-100,-1,"","","","","","",20,2
"html-keyboard-response",62,168532,"0.0-3.0-0.3-10.3","559.6999999284744","","<div style='float: left; height: 250px; width: 200px;')></div><div style='float: left;z-index: 1; display: flex; justify-content: center; align-items: center; height: 250px; width: 179px; border-style: solid; border-width: 2px; border-color: white; font-size:60px;'><div style='position: absolute; z-index: -1; background-image: url(./img/card2.png); height: 250px; width: 179px; opacity: 0.9;'></div>-70</div><div style='float: left; height: 250px; width: 200px;')></div><div style='position: fixed; bottom: 0;  left: 0%; width:100%; text-align: right'>Draw number: 5 of 5&nbsp<br>Deck number: 4 of 4&nbsp</div><div style='position: fixed; bottom: 50px; left: 0%; width:100%; font-size: 24pt'>Score: 1080</div><div style='position: fixed; font-size: 18pt; padding: 10px; background-color: white; line-height: 1.5; top: 0; left: 50%; transform: translate(-50%, 0); width: 80%; max-width: 1250px; border-style: solid; border-color: red'>This shows the payout from one draw from the deck.<br>Note that this example draw does not contribute to your score.<br><br>  In the experiment this payout disappears after 1 second. During these practice trials press SPACE BAR to move on.</div>","32",1,"forced_outcome",4,-70,-1,"./img/card1.png","","","","","",20,2
"html-keyboard-response",63,170111,"0.0-3.0-0.3-11.3","1577.1999999284744","","<div style='float: left; display: flex; justify-content: center; align-items: center; height: 250px; width: 179px; border-style: solid; border-width: 2px; border-color: white; font-size:60px; color:grey; background-color: lightgrey;'')>-40</div><div style='float: left; height: 250px; width: 200px;')></div><div style='float: left; border-style: solid; border-width: 2px; border-color: white; height: 250px; width: 179px;background-image: url(./img/card1.png); height: 250px; width: 179px;')></div><div style='position: fixed; font-size: 18pt; padding: 10px; background-color: white; line-height: 1.5; top: 0; left: 50%; transform: translate(-50%, 0); width: 80%; max-width: 1250px; border-style: solid; border-color: red'>Now you have a choice.  Do you want to draw another card from the deck and get a random payout (which will be similar to the example draws you just made), or do you want a known offer for sure? <br><br>Note that the payout your receive from this choice contributes to your score. <br><br>Press F or J to choose left or right</div><div style='position: fixed; bottom: 0;  left: 0%; width:100%; text-align: right'>Choice&nbsp<br>Deck number: 4 of 4&nbsp</div><div style='position: fixed; bottom: 50px; left: 0%; width:100%; font-size: 24pt'>Score: 1080</div>","74",1,"choice_down",4,-1,0,"./img/card1.png",-1,-1,TRUE,-40,"",20,2
"html-keyboard-response",64,170703,"0.0-3.0-0.3-12.3","589.5999999046326","","<div style='float: left; display: flex; justify-content: center; align-items: center; height: 250px; width: 179px; border-style: solid; border-width: 2px; border-color: white; font-size:60px; color:grey; background-color: lightgrey;'')>-40</div><div style='float: left; height: 250px; width: 200px;')></div><div style='float: left;z-index: 1; display: flex; justify-content: center; align-items: center; height: 250px; width: 179px; border-style: solid; border-width: 2px; border-color: white; font-size:60px;'><div style='position: absolute; z-index: -1; background-image: url(./img/card2.png); height: 250px; width: 179px; opacity: 0.9;'></div>-50</div><div style='position: fixed; font-size: 18pt; padding: 10px; background-color: white; line-height: 1.5; top: 0; left: 50%; transform: translate(-50%, 0); width: 80%; max-width: 1250px; border-style: solid; border-color: red'>You chose another draw from the deck and earned -50 points. In the experiment this outcome will show for 1 second.  In this practice game please press SPACE BAR to continue.</div><div style='position: fixed; bottom: 0;  left: 0%; width:100%; text-align: right'>Choice&nbsp<br>Deck number: 4 of 4&nbsp</div><div style='position: fixed; bottom: 50px; left: 0%; width:100%; font-size: 24pt'>Score: 1030</div>","32",1,"choice_outcome",4,-1,0,"./img/card2.png","","","","",-50,20,2
"html-keyboard-response",65,171096,"0.0-4.0","391.1999999284744","","<div style='position: fixed; font-size: 18pt; padding: 10px; background-color: white; line-height: 1.5; top: 0; left: 50%; transform: translate(-50%, 0); width: 80%; max-width: 1250px; border-style: solid; border-color: red'>Hopefully that all makes sense.  <br><br>You press SPACE BAR to draw from the deck 5 times and then F or J to make your choice.  Try to earn the most points you can!  <br><br>Press SPACE BAR to start the game.</div>","32","","","","","","","","","","","",20,2
"html-keyboard-response",66,172101,"0.0-5.0-0.0-0.0","null","","<div style='position: fixed; font-size:60px; top: 10%; left: 50%; transform: translate(-50%, 0); width: 80%; max-width: 800px; '>New Deck</div><div style='float: left; border-style: solid; border-width: 2px; border-color: white; height: 250px; width: 179px;background-image: url(./img/card1.png); height: 250px; width: 179px;')></div><div style='position: fixed; bottom: 0;  left: 0%; width:100%; text-align: right'>Draw number: 0 of 5&nbsp<br>Deck number: 1 of 100&nbsp</div><div style='position: fixed; bottom: 50px; left: 0%; width:100%; font-size: 24pt'>Score: 1000</div>","null",1,"NewDeck",1,"","","","","","","","",20,2
"html-keyboard-response",67,173238,"0.0-5.0-0.0-1.0","1135.0999999046326","","<div style='float: left; height: 250px; width: 200px;')></div><div style='float: left; border-style: solid; border-width: 2px; border-color: white; height: 250px; width: 179px;background-image: url(./img/card1.png); height: 250px; width: 179px;')></div><div style='float: left; height: 250px; width: 200px;')></div><div style='position: fixed; font-size: 18pt; padding: 10px; background-color: white; line-height: 1.5; top: 0; left: 50%; transform: translate(-50%, 0); width: 80%; max-width: 1250px; border-style: solid; border-color: white'>Press SPACE BAR to draw one card.</div><div style='position: fixed; bottom: 0;  left: 0%; width:100%; text-align: right'>Draw number: 0 of 5&nbsp<br>Deck number: 1 of 100&nbsp</div><div style='position: fixed; bottom: 50px; left: 0%; width:100%; font-size: 24pt'>Score: 1000</div>","32",1,"forced_down",1,-100,-1,"","","","","","",20,2
"html-keyboard-response",68,174245,"0.0-5.0-0.0-2.0","null","","<div style='float: left; height: 250px; width: 200px;')></div><div style='float: left;z-index: 1; display: flex; justify-content: center; align-items: center; height: 250px; width: 179px; border-style: solid; border-style: solid; border-width: 2px; border-color: white; font-size:60px;'><div style='position: absolute; z-index: -1; background-image: url(./img/card2.png); height: 250px; width: 179px; opacity: 0.9;'></div>+160</div><div style='float: left; height: 250px; width: 200px;')></div><div style='position: fixed; bottom: 0;  left: 0%; width:100%; text-align: right'>Draw number: 1 of 5&nbsp<br>Deck number: 1 of 100&nbsp</div><div style='position: fixed; bottom: 50px; left: 0%; width:100%; font-size: 24pt'>Score: 1000</div>","null",1,"forced_outcome",1,160,-1,"./img/card1.png","","","","","",20,2
"html-keyboard-response",69,174286,"0.0-5.0-0.0-3.0","38.89999997615814","","<div style='float: left; height: 250px; width: 200px;')></div><div style='float: left; border-style: solid; border-width: 2px; border-color: white; height: 250px; width: 179px;background-image: url(./img/card1.png); height: 250px; width: 179px;')></div><div style='float: left; height: 250px; width: 200px;')></div><div style='position: fixed; font-size: 18pt; padding: 10px; background-color: white; line-height: 1.5; top: 0; left: 50%; transform: translate(-50%, 0); width: 80%; max-width: 1250px; border-style: solid; border-color: white'>Press SPACE BAR to draw one card.</div><div style='position: fixed; bottom: 0;  left: 0%; width:100%; text-align: right'>Draw number: 1 of 5&nbsp<br>Deck number: 1 of 100&nbsp</div><div style='position: fixed; bottom: 50px; left: 0%; width:100%; font-size: 24pt'>Score: 1000</div>","32",1,"forced_down",1,-100,-1,"","","","","","",20,2
"html-keyboard-response",70,175292,"0.0-5.0-0.0-4.0","null","","<div style='float: left; height: 250px; width: 200px;')></div><div style='float: left;z-index: 1; display: flex; justify-content: center; align-items: center; height: 250px; width: 179px; border-style: solid; border-style: solid; border-width: 2px; border-color: white; font-size:60px;'><div style='position: absolute; z-index: -1; background-image: url(./img/card2.png); height: 250px; width: 179px; opacity: 0.9;'></div>+110</div><div style='float: left; height: 250px; width: 200px;')></div><div style='position: fixed; bottom: 0;  left: 0%; width:100%; text-align: right'>Draw number: 2 of 5&nbsp<br>Deck number: 1 of 100&nbsp</div><div style='position: fixed; bottom: 50px; left: 0%; width:100%; font-size: 24pt'>Score: 1000</div>","null",1,"forced_outcome",1,110,-1,"./img/card1.png","","","","","",20,2
"html-keyboard-response",71,176062,"0.0-5.0-0.0-5.0","768.2999999523163","","<div style='float: left; height: 250px; width: 200px;')></div><div style='float: left; border-style: solid; border-width: 2px; border-color: white; height: 250px; width: 179px;background-image: url(./img/card1.png); height: 250px; width: 179px;')></div><div style='float: left; height: 250px; width: 200px;')></div><div style='position: fixed; font-size: 18pt; padding: 10px; background-color: white; line-height: 1.5; top: 0; left: 50%; transform: translate(-50%, 0); width: 80%; max-width: 1250px; border-style: solid; border-color: white'>Press SPACE BAR to draw one card.</div><div style='position: fixed; bottom: 0;  left: 0%; width:100%; text-align: right'>Draw number: 2 of 5&nbsp<br>Deck number: 1 of 100&nbsp</div><div style='position: fixed; bottom: 50px; left: 0%; width:100%; font-size: 24pt'>Score: 1000</div>","32",1,"forced_down",1,-100,-1,"","","","","","",20,2
"html-keyboard-response",72,177065,"0.0-5.0-0.0-6.0","null","","<div style='float: left; height: 250px; width: 200px;')></div><div style='float: left;z-index: 1; display: flex; justify-content: center; align-items: center; height: 250px; width: 179px; border-style: solid; border-style: solid; border-width: 2px; border-color: white; font-size:60px;'><div style='position: absolute; z-index: -1; background-image: url(./img/card2.png); height: 250px; width: 179px; opacity: 0.9;'></div>+170</div><div style='float: left; height: 250px; width: 200px;')></div><div style='position: fixed; bottom: 0;  left: 0%; width:100%; text-align: right'>Draw number: 3 of 5&nbsp<br>Deck number: 1 of 100&nbsp</div><div style='position: fixed; bottom: 50px; left: 0%; width:100%; font-size: 24pt'>Score: 1000</div>","null",1,"forced_outcome",1,170,-1,"./img/card1.png","","","","","",20,2
"html-keyboard-response",73,177772,"0.0-5.0-0.0-7.0","705.8000000715256","","<div style='float: left; height: 250px; width: 200px;')></div><div style='float: left; border-style: solid; border-width: 2px; border-color: white; height: 250px; width: 179px;background-image: url(./img/card1.png); height: 250px; width: 179px;')></div><div style='float: left; height: 250px; width: 200px;')></div><div style='position: fixed; font-size: 18pt; padding: 10px; background-color: white; line-height: 1.5; top: 0; left: 50%; transform: translate(-50%, 0); width: 80%; max-width: 1250px; border-style: solid; border-color: white'>Press SPACE BAR to draw one card.</div><div style='position: fixed; bottom: 0;  left: 0%; width:100%; text-align: right'>Draw number: 3 of 5&nbsp<br>Deck number: 1 of 100&nbsp</div><div style='position: fixed; bottom: 50px; left: 0%; width:100%; font-size: 24pt'>Score: 1000</div>","32",1,"forced_down",1,-100,-1,"","","","","","",20,2
"html-keyboard-response",74,178778,"0.0-5.0-0.0-8.0","null","","<div style='float: left; height: 250px; width: 200px;')></div><div style='float: left;z-index: 1; display: flex; justify-content: center; align-items: center; height: 250px; width: 179px; border-style: solid; border-style: solid; border-width: 2px; border-color: white; font-size:60px;'><div style='position: absolute; z-index: -1; background-image: url(./img/card2.png); height: 250px; width: 179px; opacity: 0.9;'></div>+150</div><div style='float: left; height: 250px; width: 200px;')></div><div style='position: fixed; bottom: 0;  left: 0%; width:100%; text-align: right'>Draw number: 4 of 5&nbsp<br>Deck number: 1 of 100&nbsp</div><div style='position: fixed; bottom: 50px; left: 0%; width:100%; font-size: 24pt'>Score: 1000</div>","null",1,"forced_outcome",1,150,-1,"./img/card1.png","","","","","",20,2
"html-keyboard-response",75,179157,"0.0-5.0-0.0-9.0","376.89999997615814","","<div style='float: left; height: 250px; width: 200px;')></div><div style='float: left; border-style: solid; border-width: 2px; border-color: white; height: 250px; width: 179px;background-image: url(./img/card1.png); height: 250px; width: 179px;')></div><div style='float: left; height: 250px; width: 200px;')></div><div style='position: fixed; font-size: 18pt; padding: 10px; background-color: white; line-height: 1.5; top: 0; left: 50%; transform: translate(-50%, 0); width: 80%; max-width: 1250px; border-style: solid; border-color: white'>Press SPACE BAR to draw one card.</div><div style='position: fixed; bottom: 0;  left: 0%; width:100%; text-align: right'>Draw number: 4 of 5&nbsp<br>Deck number: 1 of 100&nbsp</div><div style='position: fixed; bottom: 50px; left: 0%; width:100%; font-size: 24pt'>Score: 1000</div>","32",1,"forced_down",1,-100,-1,"","","","","","",20,2
"html-keyboard-response",76,180164,"0.0-5.0-0.0-10.0","null","","<div style='float: left; height: 250px; width: 200px;')></div><div style='float: left;z-index: 1; display: flex; justify-content: center; align-items: center; height: 250px; width: 179px; border-style: solid; border-style: solid; border-width: 2px; border-color: white; font-size:60px;'><div style='position: absolute; z-index: -1; background-image: url(./img/card2.png); height: 250px; width: 179px; opacity: 0.9;'></div>+1010</div><div style='float: left; height: 250px; width: 200px;')></div><div style='position: fixed; bottom: 0;  left: 0%; width:100%; text-align: right'>Draw number: 5 of 5&nbsp<br>Deck number: 1 of 100&nbsp</div><div style='position: fixed; bottom: 50px; left: 0%; width:100%; font-size: 24pt'>Score: 1000</div>","null",1,"forced_outcome",1,1010,-1,"./img/card1.png","","","","","",20,2
"html-keyboard-response",77,183190,"0.0-5.0-0.0-11.0","3024","","<div style='float: left; display: flex; justify-content: center; align-items: center; height: 250px; width: 179px; border-style: solid; border-width: 2px; border-color: white; font-size:60px; color:grey; background-color: lightgrey;'')>+410</div><div style='float: left; height: 250px; width: 200px;')></div><div style='float: left; border-style: solid; border-width: 2px; border-color: white; height: 250px; width: 179px;background-image: url(./img/card1.png); height: 250px; width: 179px;')></div><div style='position: fixed; font-size: 18pt; padding: 10px; background-color: white; line-height: 1.5; top: 0; left: 50%; transform: translate(-50%, 0); width: 80%; max-width: 1250px; border-style: solid; border-color: white'>Do you want another draw from the deck or 410 points for sure?<br><br>Press F to choose left, J to choose right</div><div style='position: fixed; bottom: 0;  left: 0%; width:100%; text-align: right'>Choice&nbsp<br>Deck number: 1 of 100&nbsp</div><div style='position: fixed; bottom: 50px; left: 0%; width:100%; font-size: 24pt'>Score: 1000</div>","70",1,"choice_down",1,-1,0,"./img/card1.png",-1,-1,FALSE,410,"",20,2
"html-keyboard-response",78,184193,"0.0-5.0-0.0-12.0","null","","<div style='float: left; display: flex; justify-content: center; align-items: center; height: 250px; width: 179px; border-style: solid; border-width: 2px; border-color: black; font-size:60px;'')>+410</div><div style='float: left; height: 250px; width: 200px;')></div><div style='float: left; border-style: solid; border-width: 2px; border-color: white; height: 250px; width: 179px;background-image: url(./img/card1.png); height: 250px; width: 179px;')></div><div style='position: fixed; bottom: 0;  left: 0%; width:100%; text-align: right'>Choice&nbsp<br>Deck number: 1 of 100&nbsp</div><div style='position: fixed; bottom: 50px; left: 0%; width:100%; font-size: 24pt'>Score: 1410</div>","null",1,"choice_outcome",1,-1,0,"./img/card1.png","","","","",410,20,2
"html-keyboard-response",79,185199,"0.0-5.0-0.1-0.1","null","","<div style='position: fixed; font-size:60px; top: 10%; left: 50%; transform: translate(-50%, 0); width: 80%; max-width: 800px; '>New Deck</div><div style='float: left; border-style: solid; border-width: 2px; border-color: white; height: 250px; width: 179px;background-image: url(./img/card1.png); height: 250px; width: 179px;')></div><div style='position: fixed; bottom: 0;  left: 0%; width:100%; text-align: right'>Draw number: 0 of 5&nbsp<br>Deck number: 2 of 100&nbsp</div><div style='position: fixed; bottom: 50px; left: 0%; width:100%; font-size: 24pt'>Score: 1410</div>","null",1,"NewDeck",2,"","","","","","","","",20,2
"html-keyboard-response",80,186073,"0.0-5.0-0.1-1.1","873.1000000238419","","<div style='float: left; height: 250px; width: 200px;')></div><div style='float: left; border-style: solid; border-width: 2px; border-color: white; height: 250px; width: 179px;background-image: url(./img/card1.png); height: 250px; width: 179px;')></div><div style='float: left; height: 250px; width: 200px;')></div><div style='position: fixed; font-size: 18pt; padding: 10px; background-color: white; line-height: 1.5; top: 0; left: 50%; transform: translate(-50%, 0); width: 80%; max-width: 1250px; border-style: solid; border-color: white'>Press SPACE BAR to draw one card.</div><div style='position: fixed; bottom: 0;  left: 0%; width:100%; text-align: right'>Draw number: 0 of 5&nbsp<br>Deck number: 2 of 100&nbsp</div><div style='position: fixed; bottom: 50px; left: 0%; width:100%; font-size: 24pt'>Score: 1410</div>","32",1,"forced_down",2,-100,-1,"","","","","","",20,2
"html-keyboard-response",81,187080,"0.0-5.0-0.1-2.1","null","","<div style='float: left; height: 250px; width: 200px;')></div><div style='float: left;z-index: 1; display: flex; justify-content: center; align-items: center; height: 250px; width: 179px; border-style: solid; border-width: 2px; border-color: white; font-size:60px;'><div style='position: absolute; z-index: -1; background-image: url(./img/card2.png); height: 250px; width: 179px; opacity: 0.9;'></div>-40</div><div style='float: left; height: 250px; width: 200px;')></div><div style='position: fixed; bottom: 0;  left: 0%; width:100%; text-align: right'>Draw number: 1 of 5&nbsp<br>Deck number: 2 of 100&nbsp</div><div style='position: fixed; bottom: 50px; left: 0%; width:100%; font-size: 24pt'>Score: 1410</div>","null",1,"forced_outcome",2,-40,-1,"./img/card1.png","","","","","",20,2
"html-keyboard-response",82,187470,"0.0-5.0-0.1-3.1","387.7000000476837","","<div style='float: left; height: 250px; width: 200px;')></div><div style='float: left; border-style: solid; border-width: 2px; border-color: white; height: 250px; width: 179px;background-image: url(./img/card1.png); height: 250px; width: 179px;')></div><div style='float: left; height: 250px; width: 200px;')></div><div style='position: fixed; font-size: 18pt; padding: 10px; background-color: white; line-height: 1.5; top: 0; left: 50%; transform: translate(-50%, 0); width: 80%; max-width: 1250px; border-style: solid; border-color: white'>Press SPACE BAR to draw one card.</div><div style='position: fixed; bottom: 0;  left: 0%; width:100%; text-align: right'>Draw number: 1 of 5&nbsp<br>Deck number: 2 of 100&nbsp</div><div style='position: fixed; bottom: 50px; left: 0%; width:100%; font-size: 24pt'>Score: 1410</div>","32",1,"forced_down",2,-100,-1,"","","","","","",20,2
"html-keyboard-response",83,188476,"0.0-5.0-0.1-4.1","null","","<div style='float: left; height: 250px; width: 200px;')></div><div style='float: left;z-index: 1; display: flex; justify-content: center; align-items: center; height: 250px; width: 179px; border-style: solid; border-width: 2px; border-color: white; font-size:60px;'><div style='position: absolute; z-index: -1; background-image: url(./img/card2.png); height: 250px; width: 179px; opacity: 0.9;'></div>-40</div><div style='float: left; height: 250px; width: 200px;')></div><div style='position: fixed; bottom: 0;  left: 0%; width:100%; text-align: right'>Draw number: 2 of 5&nbsp<br>Deck number: 2 of 100&nbsp</div><div style='position: fixed; bottom: 50px; left: 0%; width:100%; font-size: 24pt'>Score: 1410</div>","null",1,"forced_outcome",2,-40,-1,"./img/card1.png","","","","","",20,2
"html-keyboard-response",84,188827,"0.0-5.0-0.1-5.1","348.5","","<div style='float: left; height: 250px; width: 200px;')></div><div style='float: left; border-style: solid; border-width: 2px; border-color: white; height: 250px; width: 179px;background-image: url(./img/card1.png); height: 250px; width: 179px;')></div><div style='float: left; height: 250px; width: 200px;')></div><div style='position: fixed; font-size: 18pt; padding: 10px; background-color: white; line-height: 1.5; top: 0; left: 50%; transform: translate(-50%, 0); width: 80%; max-width: 1250px; border-style: solid; border-color: white'>Press SPACE BAR to draw one card.</div><div style='position: fixed; bottom: 0;  left: 0%; width:100%; text-align: right'>Draw number: 2 of 5&nbsp<br>Deck number: 2 of 100&nbsp</div><div style='position: fixed; bottom: 50px; left: 0%; width:100%; font-size: 24pt'>Score: 1410</div>","32",1,"forced_down",2,-100,-1,"","","","","","",20,2
"html-keyboard-response",85,189834,"0.0-5.0-0.1-6.1","null","","<div style='float: left; height: 250px; width: 200px;')></div><div style='float: left;z-index: 1; display: flex; justify-content: center; align-items: center; height: 250px; width: 179px; border-style: solid; border-width: 2px; border-color: white; font-size:60px;'><div style='position: absolute; z-index: -1; background-image: url(./img/card2.png); height: 250px; width: 179px; opacity: 0.9;'></div>-60</div><div style='float: left; height: 250px; width: 200px;')></div><div style='position: fixed; bottom: 0;  left: 0%; width:100%; text-align: right'>Draw number: 3 of 5&nbsp<br>Deck number: 2 of 100&nbsp</div><div style='position: fixed; bottom: 50px; left: 0%; width:100%; font-size: 24pt'>Score: 1410</div>","null",1,"forced_outcome",2,-60,-1,"./img/card1.png","","","","","",20,2
"html-keyboard-response",86,190173,"0.0-5.0-0.1-7.1","337.59999990463257","","<div style='float: left; height: 250px; width: 200px;')></div><div style='float: left; border-style: solid; border-width: 2px; border-color: white; height: 250px; width: 179px;background-image: url(./img/card1.png); height: 250px; width: 179px;')></div><div style='float: left; height: 250px; width: 200px;')></div><div style='position: fixed; font-size: 18pt; padding: 10px; background-color: white; line-height: 1.5; top: 0; left: 50%; transform: translate(-50%, 0); width: 80%; max-width: 1250px; border-style: solid; border-color: white'>Press SPACE BAR to draw one card.</div><div style='position: fixed; bottom: 0;  left: 0%; width:100%; text-align: right'>Draw number: 3 of 5&nbsp<br>Deck number: 2 of 100&nbsp</div><div style='position: fixed; bottom: 50px; left: 0%; width:100%; font-size: 24pt'>Score: 1410</div>","32",1,"forced_down",2,-100,-1,"","","","","","",20,2
"html-keyboard-response",87,191175,"0.0-5.0-0.1-8.1","null","","<div style='float: left; height: 250px; width: 200px;')></div><div style='float: left;z-index: 1; display: flex; justify-content: center; align-items: center; height: 250px; width: 179px; border-style: solid; border-width: 2px; border-color: white; font-size:60px;'><div style='position: absolute; z-index: -1; background-image: url(./img/card2.png); height: 250px; width: 179px; opacity: 0.9;'></div>-60</div><div style='float: left; height: 250px; width: 200px;')></div><div style='position: fixed; bottom: 0;  left: 0%; width:100%; text-align: right'>Draw number: 4 of 5&nbsp<br>Deck number: 2 of 100&nbsp</div><div style='position: fixed; bottom: 50px; left: 0%; width:100%; font-size: 24pt'>Score: 1410</div>","null",1,"forced_outcome",2,-60,-1,"./img/card1.png","","","","","",20,2
"html-keyboard-response",88,191557,"0.0-5.0-0.1-9.1","380.7999999523163","","<div style='float: left; height: 250px; width: 200px;')></div><div style='float: left; border-style: solid; border-width: 2px; border-color: white; height: 250px; width: 179px;background-image: url(./img/card1.png); height: 250px; width: 179px;')></div><div style='float: left; height: 250px; width: 200px;')></div><div style='position: fixed; font-size: 18pt; padding: 10px; background-color: white; line-height: 1.5; top: 0; left: 50%; transform: translate(-50%, 0); width: 80%; max-width: 1250px; border-style: solid; border-color: white'>Press SPACE BAR to draw one card.</div><div style='position: fixed; bottom: 0;  left: 0%; width:100%; text-align: right'>Draw number: 4 of 5&nbsp<br>Deck number: 2 of 100&nbsp</div><div style='position: fixed; bottom: 50px; left: 0%; width:100%; font-size: 24pt'>Score: 1410</div>","32",1,"forced_down",2,-100,-1,"","","","","","",20,2
"html-keyboard-response",89,192563,"0.0-5.0-0.1-10.1","null","","<div style='float: left; height: 250px; width: 200px;')></div><div style='float: left;z-index: 1; display: flex; justify-content: center; align-items: center; height: 250px; width: 179px; border-style: solid; border-width: 2px; border-color: white; font-size:60px;'><div style='position: absolute; z-index: -1; background-image: url(./img/card2.png); height: 250px; width: 179px; opacity: 0.9;'></div>-40</div><div style='float: left; height: 250px; width: 200px;')></div><div style='position: fixed; bottom: 0;  left: 0%; width:100%; text-align: right'>Draw number: 5 of 5&nbsp<br>Deck number: 2 of 100&nbsp</div><div style='position: fixed; bottom: 50px; left: 0%; width:100%; font-size: 24pt'>Score: 1410</div>","null",1,"forced_outcome",2,-40,-1,"./img/card1.png","","","","","",20,2
"html-keyboard-response",90,195139,"0.0-5.0-0.1-11.1","2574.7999999523163","","<div style='float: left; display: flex; justify-content: center; align-items: center; height: 250px; width: 179px; border-style: solid; border-width: 2px; border-color: white; font-size:60px; color:grey; background-color: lightgrey;'')>-110</div><div style='float: left; height: 250px; width: 200px;')></div><div style='float: left; border-style: solid; border-width: 2px; border-color: white; height: 250px; width: 179px;background-image: url(./img/card1.png); height: 250px; width: 179px;')></div><div style='position: fixed; font-size: 18pt; padding: 10px; background-color: white; line-height: 1.5; top: 0; left: 50%; transform: translate(-50%, 0); width: 80%; max-width: 1250px; border-style: solid; border-color: white'>Do you want another draw from the deck or -110 points for sure?<br><br>Press F to choose left, J to choose right</div><div style='position: fixed; bottom: 0;  left: 0%; width:100%; text-align: right'>Choice&nbsp<br>Deck number: 2 of 100&nbsp</div><div style='position: fixed; bottom: 50px; left: 0%; width:100%; font-size: 24pt'>Score: 1410</div>","74",1,"choice_down",2,-1,0,"./img/card1.png",-1,-1,TRUE,-110,"",20,2
"html-keyboard-response",91,196145,"0.0-5.0-0.1-12.1","null","","<div style='float: left; display: flex; justify-content: center; align-items: center; height: 250px; width: 179px; border-style: solid; border-width: 2px; border-color: white; font-size:60px; color:grey; background-color: lightgrey;'')>-110</div><div style='float: left; height: 250px; width: 200px;')></div><div style='float: left;z-index: 1; display: flex; justify-content: center; align-items: center; height: 250px; width: 179px; border-style: solid; border-width: 2px; border-color: white; font-size:60px;'><div style='position: absolute; z-index: -1; background-image: url(./img/card2.png); height: 250px; width: 179px; opacity: 0.9;'></div>-40</div><div style='position: fixed; bottom: 0;  left: 0%; width:100%; text-align: right'>Choice&nbsp<br>Deck number: 2 of 100&nbsp</div><div style='position: fixed; bottom: 50px; left: 0%; width:100%; font-size: 24pt'>Score: 1370</div>","null",1,"choice_outcome",2,-1,0,"./img/card2.png","","","","",-40,20,2
"html-keyboard-response",92,197152,"0.0-5.0-0.2-0.2","null","","<div style='position: fixed; font-size:60px; top: 10%; left: 50%; transform: translate(-50%, 0); width: 80%; max-width: 800px; '>New Deck</div><div style='float: left; border-style: solid; border-width: 2px; border-color: white; height: 250px; width: 179px;background-image: url(./img/card1.png); height: 250px; width: 179px;')></div><div style='position: fixed; bottom: 0;  left: 0%; width:100%; text-align: right'>Draw number: 0 of 5&nbsp<br>Deck number: 3 of 100&nbsp</div><div style='position: fixed; bottom: 50px; left: 0%; width:100%; font-size: 24pt'>Score: 1370</div>","null",1,"NewDeck",3,"","","","","","","","",20,2
"html-keyboard-response",93,198199,"0.0-5.0-0.2-1.2","1045.7000000476837","","<div style='float: left; height: 250px; width: 200px;')></div><div style='float: left; border-style: solid; border-width: 2px; border-color: white; height: 250px; width: 179px;background-image: url(./img/card1.png); height: 250px; width: 179px;')></div><div style='float: left; height: 250px; width: 200px;')></div><div style='position: fixed; font-size: 18pt; padding: 10px; background-color: white; line-height: 1.5; top: 0; left: 50%; transform: translate(-50%, 0); width: 80%; max-width: 1250px; border-style: solid; border-color: white'>Press SPACE BAR to draw one card.</div><div style='position: fixed; bottom: 0;  left: 0%; width:100%; text-align: right'>Draw number: 0 of 5&nbsp<br>Deck number: 3 of 100&nbsp</div><div style='position: fixed; bottom: 50px; left: 0%; width:100%; font-size: 24pt'>Score: 1370</div>","32",1,"forced_down",3,-100,-1,"","","","","","",20,2
"html-keyboard-response",94,199203,"0.0-5.0-0.2-2.2","null","","<div style='float: left; height: 250px; width: 200px;')></div><div style='float: left;z-index: 1; display: flex; justify-content: center; align-items: center; height: 250px; width: 179px; border-style: solid; border-width: 2px; border-color: white; font-size:60px;'><div style='position: absolute; z-index: -1; background-image: url(./img/card2.png); height: 250px; width: 179px; opacity: 0.9;'></div>0</div><div style='float: left; height: 250px; width: 200px;')></div><div style='position: fixed; bottom: 0;  left: 0%; width:100%; text-align: right'>Draw number: 1 of 5&nbsp<br>Deck number: 3 of 100&nbsp</div><div style='position: fixed; bottom: 50px; left: 0%; width:100%; font-size: 24pt'>Score: 1370</div>","null",1,"forced_outcome",3,0,-1,"./img/card1.png","","","","","",20,2
"html-keyboard-response",95,199333,"0.0-5.0-0.2-3.2","128.20000004768372","","<div style='float: left; height: 250px; width: 200px;')></div><div style='float: left; border-style: solid; border-width: 2px; border-color: white; height: 250px; width: 179px;background-image: url(./img/card1.png); height: 250px; width: 179px;')></div><div style='float: left; height: 250px; width: 200px;')></div><div style='position: fixed; font-size: 18pt; padding: 10px; background-color: white; line-height: 1.5; top: 0; left: 50%; transform: translate(-50%, 0); width: 80%; max-width: 1250px; border-style: solid; border-color: white'>Press SPACE BAR to draw one card.</div><div style='position: fixed; bottom: 0;  left: 0%; width:100%; text-align: right'>Draw number: 1 of 5&nbsp<br>Deck number: 3 of 100&nbsp</div><div style='position: fixed; bottom: 50px; left: 0%; width:100%; font-size: 24pt'>Score: 1370</div>","32",1,"forced_down",3,-100,-1,"","","","","","",20,2
"html-keyboard-response",96,200335,"0.0-5.0-0.2-4.2","null","","<div style='float: left; height: 250px; width: 200px;')></div><div style='float: left;z-index: 1; display: flex; justify-content: center; align-items: center; height: 250px; width: 179px; border-style: solid; border-style: solid; border-width: 2px; border-color: white; font-size:60px;'><div style='position: absolute; z-index: -1; background-image: url(./img/card2.png); height: 250px; width: 179px; opacity: 0.9;'></div>+20</div><div style='float: left; height: 250px; width: 200px;')></div><div style='position: fixed; bottom: 0;  left: 0%; width:100%; text-align: right'>Draw number: 2 of 5&nbsp<br>Deck number: 3 of 100&nbsp</div><div style='position: fixed; bottom: 50px; left: 0%; width:100%; font-size: 24pt'>Score: 1370</div>","null",1,"forced_outcome",3,20,-1,"./img/card1.png","","","","","",20,2
"html-keyboard-response",97,200656,"0.0-5.0-0.2-5.2","319.5","","<div style='float: left; height: 250px; width: 200px;')></div><div style='float: left; border-style: solid; border-width: 2px; border-color: white; height: 250px; width: 179px;background-image: url(./img/card1.png); height: 250px; width: 179px;')></div><div style='float: left; height: 250px; width: 200px;')></div><div style='position: fixed; font-size: 18pt; padding: 10px; background-color: white; line-height: 1.5; top: 0; left: 50%; transform: translate(-50%, 0); width: 80%; max-width: 1250px; border-style: solid; border-color: white'>Press SPACE BAR to draw one card.</div><div style='position: fixed; bottom: 0;  left: 0%; width:100%; text-align: right'>Draw number: 2 of 5&nbsp<br>Deck number: 3 of 100&nbsp</div><div style='position: fixed; bottom: 50px; left: 0%; width:100%; font-size: 24pt'>Score: 1370</div>","32",1,"forced_down",3,-100,-1,"","","","","","",20,2
