"trial_type","trial_index","time_elapsed","internal_node_id","rt","responses","stimulus","key_press","block","type","counter","reward","side","card","mean","sigma","choseDeck","offer","reward_on_choice","age","gender"
"pavlovia",0,3,"0.0-0.0","","","","","","","","","","","","","","","",19,2
"survey-text",1,2215,"0.0-1.0","2208.4000000003725","{""""Start"""":""""""""}","","","","","","","","","","","","","",19,2
"html-keyboard-response",2,4495,"0.0-2.0-0.0","2277.2000000011176","","<div style='position: fixed; font-size: 18pt; padding: 10px; background-color: white; line-height: 1.5; top: 0; left: 50%; transform: translate(-50%, 0); width: 80%; max-width: 1250px; border-style: solid; border-color: red'>Welcome to the experiment!<br><br>[press any key to continue]</div>","32","","","","","","","","","","","",19,2
"html-keyboard-response",3,8104,"0.0-2.0-1.0","3607.9000000003725","","<div style='position: fixed; font-size: 18pt; padding: 10px; background-color: white; line-height: 1.5; top: 0; left: 50%; transform: translate(-50%, 0); width: 80%; max-width: 1250px; border-style: solid; border-color: red'>In this experiment you will make decisions about whether to draw a card to get a variable payout or take a sure-thing payout.<br><br>[press any key to continue]</div>","32","","","","","","","","","","","",19,2
"html-keyboard-response",4,15278,"0.0-2.0-2.0","7172.800000000745","","<div style='position: fixed; font-size: 18pt; padding: 10px; background-color: white; line-height: 1.5; top: 0; left: 50%; transform: translate(-50%, 0); width: 80%; max-width: 1250px; border-style: solid; border-color: red'>Here is what your choice might look like. On the left is a deck of cards that has variable payouts and on the right a sure-thing offer of 100 points.<br><br>[press any key to continue]</div><div style='float: left; border-style: solid; border-width: 2px; border-color: white; height: 250px; width: 179px;background-image: url(./img/card1.png); height: 250px; width: 179px;')></div><div style='float: left; height: 250px; width: 200px;')></div><div style='float: left; display: flex; justify-content: center; align-items: center; height: 250px; width: 179px; border-style: solid; border-width: 2px; border-color: white; font-size:60px; color:grey; background-color: lightgrey;'')>+100</div>","32","","","","","","","","","","","",19,2
"html-keyboard-response",5,18494,"0.0-2.0-3.0","3213.89999999851","","<div style='position: fixed; font-size: 18pt; padding: 10px; background-color: white; line-height: 1.5; top: 0; left: 50%; transform: translate(-50%, 0); width: 80%; max-width: 1250px; border-style: solid; border-color: red'>You will press the 'F' key to choose the left-side option (deck). <br>You will press the 'J' key to choose the right-side option (sure-thing offer).<br><br>[press any key to continue]</div><div style='float: left; border-style: solid; border-width: 2px; border-color: white; height: 250px; width: 179px;background-image: url(./img/card1.png); height: 250px; width: 179px;')></div><div style='float: left; height: 250px; width: 200px;')></div><div style='float: left; display: flex; justify-content: center; align-items: center; height: 250px; width: 179px; border-style: solid; border-width: 2px; border-color: white; font-size:60px; color:grey; background-color: lightgrey;'')>+100</div>","32","","","","","","","","","","","",19,2
"html-keyboard-response",6,22183,"0.0-2.0-4.0","3688","","<div style='position: fixed; font-size: 18pt; padding: 10px; background-color: white; line-height: 1.5; top: 0; left: 50%; transform: translate(-50%, 0); width: 80%; max-width: 1250px; border-style: solid; border-color: red'>If you choose the deck, you will get that card's hidden offer. <br><br>The offer could be a positive or negative.  <br><br>[press any key to continue]</div><div style='float: left; border-style: solid; border-width: 2px; border-color: white; height: 250px; width: 179px;background-image: url(./img/card1.png); height: 250px; width: 179px;')></div><div style='float: left; height: 250px; width: 200px;')></div><div style='float: left; display: flex; justify-content: center; align-items: center; height: 250px; width: 179px; border-style: solid; border-width: 2px; border-color: white; font-size:60px; color:grey; background-color: lightgrey;'')>+100</div>","32","","","","","","","","","","","",19,2
"html-keyboard-response",7,28841,"0.0-2.0-5.0","6657.199999999255","","<div style='position: fixed; font-size: 18pt; padding: 10px; background-color: white; line-height: 1.5; top: 0; left: 50%; transform: translate(-50%, 0); width: 80%; max-width: 1250px; border-style: solid; border-color: red'>In this case the hidden card was worth +200 points, so the variable deck was a better than the sure-thing. <br><br>[press any key to continue]</div><div style='float: left; display: flex; justify-content: center; align-items: center; height: 250px; width: 179px; border-style: solid; border-width: 2px; border-color: black; font-size:60px;'')>+200</div><div style='float: left; height: 250px; width: 200px;')></div><div style='float: left; display: flex; justify-content: center; align-items: center; height: 250px; width: 179px; border-style: solid; border-width: 2px; border-color: white; font-size:60px; color:grey; background-color: lightgrey;'')>+100</div>","32","","","","","","","","","","","",19,2
"html-keyboard-response",8,31437,"0.0-2.0-6.0","2594.5999999996275","","<div style='position: fixed; font-size: 18pt; padding: 10px; background-color: white; line-height: 1.5; top: 0; left: 50%; transform: translate(-50%, 0); width: 80%; max-width: 1250px; border-style: solid; border-color: red'>On this trial, the hidden card was worth -150 points, so the sure-thing was better than the variable deck.<br><br>[press any key to continue]</div><div style='float: left; display: flex; justify-content: center; align-items: center; height: 250px; width: 179px; border-style: solid; border-width: 2px; border-color: black; font-size:60px;'')>-150</div><div style='float: left; height: 250px; width: 200px;')></div><div style='float: left; display: flex; justify-content: center; align-items: center; height: 250px; width: 179px; border-style: solid; border-width: 2px; border-color: white; font-size:60px; color:grey; background-color: lightgrey;'')>+100</div>","32","","","","","","","","","","","",19,2
"html-keyboard-response",9,32628,"0.0-2.0-7.0","1190.0999999996275","","<div style='position: fixed; font-size: 18pt; padding: 10px; background-color: white; line-height: 1.5; top: 0; left: 50%; transform: translate(-50%, 0); width: 80%; max-width: 1250px; border-style: solid; border-color: red'>Every decision involves a different deck of cards with variable payouts. <br>Some decks are better on average and some decks are worse on average. <br><br>[press any key to continue]</div>","32","","","","","","","","","","","",19,2
"html-keyboard-response",10,100800,"0.0-2.0-8.0","68169.39999999851","","<div style='position: fixed; font-size: 18pt; padding: 10px; background-color: white; line-height: 1.5; top: 0; left: 50%; transform: translate(-50%, 0); width: 80%; max-width: 1250px; border-style: solid; border-color: red'>To give you a sense of whether the deck is good or bad, you will be shown 5 cards from each deck before you are asked to choose between the variable deck option and the sure-thing option. <br><br>To see these example cards you will press the SPACE BAR.<br><br>[press any key to continue]</div>","32","","","","","","","","","","","",19,2
"html-keyboard-response",11,103018,"0.0-2.0-9.0","2216.7999999970198","","<div style='position: fixed; font-size: 18pt; padding: 10px; background-color: white; line-height: 1.5; top: 0; left: 50%; transform: translate(-50%, 0); width: 80%; max-width: 1250px; border-style: solid; border-color: red'>To help you keep track of how well you are doing, your score will be shown at the bottom of the screen.  <br><br>You will start from 1000 points and can both gain and lose points. <br><br>Note that you will only gain or lose points when you choose between the two options.<br><br>[press any key to continue]</div>","32","","","","","","","","","","","",19,2
"html-keyboard-response",12,103646,"0.0-2.0-10.0","627.5","","<div style='position: fixed; font-size: 18pt; padding: 10px; background-color: white; line-height: 1.5; top: 0; left: 50%; transform: translate(-50%, 0); width: 80%; max-width: 1250px; border-style: solid; border-color: red'>In the experiment you will make decisions about 180 different decks. This should take about 20-30 minutes to complete. <br><br>When you are ready to begin we will try a few example games to make sure that everything makes sense.<br><br>[press any key to continue]</div>","32","","","","","","","","","","","",19,2
"html-keyboard-response",13,105532,"0.0-3.0-0.0-0.0","1882.7999999970198","","<div style='float: left; border-style: solid; border-width: 2px; border-color: white; height: 250px; width: 179px;background-image: url(./img/card1.png); height: 250px; width: 179px;')></div><div style='position: fixed; font-size: 18pt; padding: 10px; background-color: white; line-height: 1.5; top: 0; left: 50%; transform: translate(-50%, 0); width: 80%; max-width: 1250px; border-style: solid; border-color: red'>The words """"New Deck"""" will appear each time there is a new deck with a different average payoff. The task automatically moves on after 1 second.  <br><br>For this practice game, press SPACE BAR to continue.</div><div style='position: fixed; bottom: 0;  left: 0%; width:100%; text-align: right'>Draw number: 0 of 5&nbsp<br>Deck number: 1 of 4&nbsp</div><div style='position: fixed; bottom: 50px; left: 0%; width:100%; font-size: 24pt'>Score: 1000</div>","32",1,"NewDeck",1,"","","","","","","","",19,2
"html-keyboard-response",14,106690,"0.0-3.0-0.0-1.0","1153.800000000745","","<div style='float: left; height: 250px; width: 200px;')></div><div style='float: left; border-style: solid; border-width: 2px; border-color: white; height: 250px; width: 179px;background-image: url(./img/card1.png); height: 250px; width: 179px;')></div><div style='float: left; height: 250px; width: 200px;')></div><div style='position: fixed; font-size: 18pt; padding: 10px; background-color: white; line-height: 1.5; top: 0; left: 50%; transform: translate(-50%, 0); width: 80%; max-width: 1250px; border-style: solid; border-color: red'>Press SPACE BAR to draw one card from the deck ...</div><div style='position: fixed; bottom: 0;  left: 0%; width:100%; text-align: right'>Draw number: 0 of 5&nbsp<br>Deck number: 1 of 4&nbsp</div><div style='position: fixed; bottom: 50px; left: 0%; width:100%; font-size: 24pt'>Score: 1000</div>","32",1,"forced_down",1,-100,-1,"","","","","","",19,2
"html-keyboard-response",15,120699,"0.0-3.0-0.0-2.0","14007.39999999851","","<div style='float: left; height: 250px; width: 200px;')></div><div style='float: left;z-index: 1; display: flex; justify-content: center; align-items: center; height: 250px; width: 179px; border-style: solid; border-style: solid; border-width: 2px; border-color: white; font-size:60px;'><div style='position: absolute; z-index: -1; background-image: url(./img/card2.png); height: 250px; width: 179px; opacity: 0.9;'></div>+100</div><div style='float: left; height: 250px; width: 200px;')></div><div style='position: fixed; bottom: 0;  left: 0%; width:100%; text-align: right'>Draw number: 1 of 5&nbsp<br>Deck number: 1 of 4&nbsp</div><div style='position: fixed; bottom: 50px; left: 0%; width:100%; font-size: 24pt'>Score: 1000</div><div style='position: fixed; font-size: 18pt; padding: 10px; background-color: white; line-height: 1.5; top: 0; left: 50%; transform: translate(-50%, 0); width: 80%; max-width: 1250px; border-style: solid; border-color: red'>This shows the payout from one draw from the deck.<br>Note that this example draw does not contribute to your score.<br><br>  In the experiment this payout disappears after 1 second. During these practice trials press SPACE BAR to move on.</div>","32",1,"forced_outcome",1,100,-1,"./img/card1.png","","","","","",19,2
"html-keyboard-response",16,123197,"0.0-3.0-0.0-3.0","2496.5","","<div style='float: left; height: 250px; width: 200px;')></div><div style='float: left; border-style: solid; border-width: 2px; border-color: white; height: 250px; width: 179px;background-image: url(./img/card1.png); height: 250px; width: 179px;')></div><div style='float: left; height: 250px; width: 200px;')></div><div style='position: fixed; font-size: 18pt; padding: 10px; background-color: white; line-height: 1.5; top: 0; left: 50%; transform: translate(-50%, 0); width: 80%; max-width: 1250px; border-style: solid; border-color: red'>Press SPACE BAR to draw one card from the deck ...</div><div style='position: fixed; bottom: 0;  left: 0%; width:100%; text-align: right'>Draw number: 1 of 5&nbsp<br>Deck number: 1 of 4&nbsp</div><div style='position: fixed; bottom: 50px; left: 0%; width:100%; font-size: 24pt'>Score: 1000</div>","32",1,"forced_down",1,-100,-1,"","","","","","",19,2
"html-keyboard-response",17,124548,"0.0-3.0-0.0-4.0","1349.1000000014901","","<div style='float: left; height: 250px; width: 200px;')></div><div style='float: left;z-index: 1; display: flex; justify-content: center; align-items: center; height: 250px; width: 179px; border-style: solid; border-style: solid; border-width: 2px; border-color: white; font-size:60px;'><div style='position: absolute; z-index: -1; background-image: url(./img/card2.png); height: 250px; width: 179px; opacity: 0.9;'></div>+70</div><div style='float: left; height: 250px; width: 200px;')></div><div style='position: fixed; bottom: 0;  left: 0%; width:100%; text-align: right'>Draw number: 2 of 5&nbsp<br>Deck number: 1 of 4&nbsp</div><div style='position: fixed; bottom: 50px; left: 0%; width:100%; font-size: 24pt'>Score: 1000</div><div style='position: fixed; font-size: 18pt; padding: 10px; background-color: white; line-height: 1.5; top: 0; left: 50%; transform: translate(-50%, 0); width: 80%; max-width: 1250px; border-style: solid; border-color: red'>This shows the payout from one draw from the deck.<br>Note that this example draw does not contribute to your score.<br><br>  In the experiment this payout disappears after 1 second. During these practice trials press SPACE BAR to move on.</div>","32",1,"forced_outcome",1,70,-1,"./img/card1.png","","","","","",19,2
"html-keyboard-response",18,125469,"0.0-3.0-0.0-5.0","920.3999999985099","","<div style='float: left; height: 250px; width: 200px;')></div><div style='float: left; border-style: solid; border-width: 2px; border-color: white; height: 250px; width: 179px;background-image: url(./img/card1.png); height: 250px; width: 179px;')></div><div style='float: left; height: 250px; width: 200px;')></div><div style='position: fixed; font-size: 18pt; padding: 10px; background-color: white; line-height: 1.5; top: 0; left: 50%; transform: translate(-50%, 0); width: 80%; max-width: 1250px; border-style: solid; border-color: red'>Press SPACE BAR to draw one card from the deck ...</div><div style='position: fixed; bottom: 0;  left: 0%; width:100%; text-align: right'>Draw number: 2 of 5&nbsp<br>Deck number: 1 of 4&nbsp</div><div style='position: fixed; bottom: 50px; left: 0%; width:100%; font-size: 24pt'>Score: 1000</div>","32",1,"forced_down",1,-100,-1,"","","","","","",19,2
"html-keyboard-response",19,126154,"0.0-3.0-0.0-6.0","683","","<div style='float: left; height: 250px; width: 200px;')></div><div style='float: left;z-index: 1; display: flex; justify-content: center; align-items: center; height: 250px; width: 179px; border-style: solid; border-style: solid; border-width: 2px; border-color: white; font-size:60px;'><div style='position: absolute; z-index: -1; background-image: url(./img/card2.png); height: 250px; width: 179px; opacity: 0.9;'></div>+700</div><div style='float: left; height: 250px; width: 200px;')></div><div style='position: fixed; bottom: 0;  left: 0%; width:100%; text-align: right'>Draw number: 3 of 5&nbsp<br>Deck number: 1 of 4&nbsp</div><div style='position: fixed; bottom: 50px; left: 0%; width:100%; font-size: 24pt'>Score: 1000</div><div style='position: fixed; font-size: 18pt; padding: 10px; background-color: white; line-height: 1.5; top: 0; left: 50%; transform: translate(-50%, 0); width: 80%; max-width: 1250px; border-style: solid; border-color: red'>This shows the payout from one draw from the deck.<br>Note that this example draw does not contribute to your score.<br><br>  In the experiment this payout disappears after 1 second. During these practice trials press SPACE BAR to move on.</div>","32",1,"forced_outcome",1,700,-1,"./img/card1.png","","","","","",19,2
"html-keyboard-response",20,126984,"0.0-3.0-0.0-7.0","829.0999999977648","","<div style='float: left; height: 250px; width: 200px;')></div><div style='float: left; border-style: solid; border-width: 2px; border-color: white; height: 250px; width: 179px;background-image: url(./img/card1.png); height: 250px; width: 179px;')></div><div style='float: left; height: 250px; width: 200px;')></div><div style='position: fixed; font-size: 18pt; padding: 10px; background-color: white; line-height: 1.5; top: 0; left: 50%; transform: translate(-50%, 0); width: 80%; max-width: 1250px; border-style: solid; border-color: red'>Press SPACE BAR to draw one card from the deck ...</div><div style='position: fixed; bottom: 0;  left: 0%; width:100%; text-align: right'>Draw number: 3 of 5&nbsp<br>Deck number: 1 of 4&nbsp</div><div style='position: fixed; bottom: 50px; left: 0%; width:100%; font-size: 24pt'>Score: 1000</div>","32",1,"forced_down",1,-100,-1,"","","","","","",19,2
"html-keyboard-response",21,127954,"0.0-3.0-0.0-8.0","967.3999999985099","","<div style='float: left; height: 250px; width: 200px;')></div><div style='float: left;z-index: 1; display: flex; justify-content: center; align-items: center; height: 250px; width: 179px; border-style: solid; border-style: solid; border-width: 2px; border-color: white; font-size:60px;'><div style='position: absolute; z-index: -1; background-image: url(./img/card2.png); height: 250px; width: 179px; opacity: 0.9;'></div>+110</div><div style='float: left; height: 250px; width: 200px;')></div><div style='position: fixed; bottom: 0;  left: 0%; width:100%; text-align: right'>Draw number: 4 of 5&nbsp<br>Deck number: 1 of 4&nbsp</div><div style='position: fixed; bottom: 50px; left: 0%; width:100%; font-size: 24pt'>Score: 1000</div><div style='position: fixed; font-size: 18pt; padding: 10px; background-color: white; line-height: 1.5; top: 0; left: 50%; transform: translate(-50%, 0); width: 80%; max-width: 1250px; border-style: solid; border-color: red'>This shows the payout from one draw from the deck.<br>Note that this example draw does not contribute to your score.<br><br>  In the experiment this payout disappears after 1 second. During these practice trials press SPACE BAR to move on.</div>","32",1,"forced_outcome",1,110,-1,"./img/card1.png","","","","","",19,2
"html-keyboard-response",22,129232,"0.0-3.0-0.0-9.0","1277.1000000014901","","<div style='float: left; height: 250px; width: 200px;')></div><div style='float: left; border-style: solid; border-width: 2px; border-color: white; height: 250px; width: 179px;background-image: url(./img/card1.png); height: 250px; width: 179px;')></div><div style='float: left; height: 250px; width: 200px;')></div><div style='position: fixed; font-size: 18pt; padding: 10px; background-color: white; line-height: 1.5; top: 0; left: 50%; transform: translate(-50%, 0); width: 80%; max-width: 1250px; border-style: solid; border-color: red'>Press SPACE BAR to draw one card from the deck ...</div><div style='position: fixed; bottom: 0;  left: 0%; width:100%; text-align: right'>Draw number: 4 of 5&nbsp<br>Deck number: 1 of 4&nbsp</div><div style='position: fixed; bottom: 50px; left: 0%; width:100%; font-size: 24pt'>Score: 1000</div>","32",1,"forced_down",1,-100,-1,"","","","","","",19,2
"html-keyboard-response",23,130053,"0.0-3.0-0.0-10.0","819.9000000022352","","<div style='float: left; height: 250px; width: 200px;')></div><div style='float: left;z-index: 1; display: flex; justify-content: center; align-items: center; height: 250px; width: 179px; border-style: solid; border-style: solid; border-width: 2px; border-color: white; font-size:60px;'><div style='position: absolute; z-index: -1; background-image: url(./img/card2.png); height: 250px; width: 179px; opacity: 0.9;'></div>+90</div><div style='float: left; height: 250px; width: 200px;')></div><div style='position: fixed; bottom: 0;  left: 0%; width:100%; text-align: right'>Draw number: 5 of 5&nbsp<br>Deck number: 1 of 4&nbsp</div><div style='position: fixed; bottom: 50px; left: 0%; width:100%; font-size: 24pt'>Score: 1000</div><div style='position: fixed; font-size: 18pt; padding: 10px; background-color: white; line-height: 1.5; top: 0; left: 50%; transform: translate(-50%, 0); width: 80%; max-width: 1250px; border-style: solid; border-color: red'>This shows the payout from one draw from the deck.<br>Note that this example draw does not contribute to your score.<br><br>  In the experiment this payout disappears after 1 second. During these practice trials press SPACE BAR to move on.</div>","32",1,"forced_outcome",1,90,-1,"./img/card1.png","","","","","",19,2
"html-keyboard-response",24,134005,"0.0-3.0-0.0-11.0","3949.099999997765","","<div style='float: left; display: flex; justify-content: center; align-items: center; height: 250px; width: 179px; border-style: solid; border-width: 2px; border-color: white; font-size:60px; color:grey; background-color: lightgrey;'')>+100</div><div style='float: left; height: 250px; width: 200px;')></div><div style='float: left; border-style: solid; border-width: 2px; border-color: white; height: 250px; width: 179px;background-image: url(./img/card1.png); height: 250px; width: 179px;')></div><div style='position: fixed; font-size: 18pt; padding: 10px; background-color: white; line-height: 1.5; top: 0; left: 50%; transform: translate(-50%, 0); width: 80%; max-width: 1250px; border-style: solid; border-color: red'>Now you have a choice.  Do you want to draw another card from the deck and get a random payout (which will be similar to the example draws you just made), or do you want a known offer for sure? <br><br>Note that the payout your receive from this choice contributes to your score. <br><br>Press F or J to choose left or right</div><div style='position: fixed; bottom: 0;  left: 0%; width:100%; text-align: right'>Choice&nbsp<br>Deck number: 1 of 4&nbsp</div><div style='position: fixed; bottom: 50px; left: 0%; width:100%; font-size: 24pt'>Score: 1000</div>","74",1,"choice_down",1,-1,0,"./img/card1.png",-1,-1,TRUE,100,"",19,2
"html-keyboard-response",25,136280,"0.0-3.0-0.0-12.0","2272.699999999255","","<div style='float: left; display: flex; justify-content: center; align-items: center; height: 250px; width: 179px; border-style: solid; border-width: 2px; border-color: white; font-size:60px; color:grey; background-color: lightgrey;'')>+100</div><div style='float: left; height: 250px; width: 200px;')></div><div style='float: left;z-index: 1; display: flex; justify-content: center; align-items: center; height: 250px; width: 179px; border-style: solid; border-style: solid; border-width: 2px; border-color: white; font-size:60px;'><div style='position: absolute; z-index: -1; background-image: url(./img/card2.png); height: 250px; width: 179px; opacity: 0.9;'></div>+80</div><div style='position: fixed; font-size: 18pt; padding: 10px; background-color: white; line-height: 1.5; top: 0; left: 50%; transform: translate(-50%, 0); width: 80%; max-width: 1250px; border-style: solid; border-color: red'>You chose another draw from the deck and earned 80 points. In the experiment this outcome will show for 1 second.  In this practice game please press SPACE BAR to continue.</div><div style='position: fixed; bottom: 0;  left: 0%; width:100%; text-align: right'>Choice&nbsp<br>Deck number: 1 of 4&nbsp</div><div style='position: fixed; bottom: 50px; left: 0%; width:100%; font-size: 24pt'>Score: 1080</div>","32",1,"choice_outcome",1,-1,0,"./img/card2.png","","","","",80,19,2
"html-keyboard-response",26,138240,"0.0-3.0-0.1-0.1","1958.5","","<div style='float: left; border-style: solid; border-width: 2px; border-color: white; height: 250px; width: 179px;background-image: url(./img/card1.png); height: 250px; width: 179px;')></div><div style='position: fixed; font-size: 18pt; padding: 10px; background-color: white; line-height: 1.5; top: 0; left: 50%; transform: translate(-50%, 0); width: 80%; max-width: 1250px; border-style: solid; border-color: red'>The words """"New Deck"""" will appear each time there is a new deck with a different average payoff. The task automatically moves on after 1 second.  <br><br>For this practice game, press SPACE BAR to continue.</div><div style='position: fixed; bottom: 0;  left: 0%; width:100%; text-align: right'>Draw number: 0 of 5&nbsp<br>Deck number: 2 of 4&nbsp</div><div style='position: fixed; bottom: 50px; left: 0%; width:100%; font-size: 24pt'>Score: 1080</div>","32",1,"NewDeck",2,"","","","","","","","",19,2
"html-keyboard-response",27,139313,"0.0-3.0-0.1-1.1","1071.800000000745","","<div style='float: left; height: 250px; width: 200px;')></div><div style='float: left; border-style: solid; border-width: 2px; border-color: white; height: 250px; width: 179px;background-image: url(./img/card1.png); height: 250px; width: 179px;')></div><div style='float: left; height: 250px; width: 200px;')></div><div style='position: fixed; font-size: 18pt; padding: 10px; background-color: white; line-height: 1.5; top: 0; left: 50%; transform: translate(-50%, 0); width: 80%; max-width: 1250px; border-style: solid; border-color: red'>Press SPACE BAR to draw one card from the deck ...</div><div style='position: fixed; bottom: 0;  left: 0%; width:100%; text-align: right'>Draw number: 0 of 5&nbsp<br>Deck number: 2 of 4&nbsp</div><div style='position: fixed; bottom: 50px; left: 0%; width:100%; font-size: 24pt'>Score: 1080</div>","32",1,"forced_down",2,-100,-1,"","","","","","",19,2
"html-keyboard-response",28,140753,"0.0-3.0-0.1-2.1","1438.199999999255","","<div style='float: left; height: 250px; width: 200px;')></div><div style='float: left;z-index: 1; display: flex; justify-content: center; align-items: center; height: 250px; width: 179px; border-style: solid; border-style: solid; border-width: 2px; border-color: white; font-size:60px;'><div style='position: absolute; z-index: -1; background-image: url(./img/card2.png); height: 250px; width: 179px; opacity: 0.9;'></div>+60</div><div style='float: left; height: 250px; width: 200px;')></div><div style='position: fixed; bottom: 0;  left: 0%; width:100%; text-align: right'>Draw number: 1 of 5&nbsp<br>Deck number: 2 of 4&nbsp</div><div style='position: fixed; bottom: 50px; left: 0%; width:100%; font-size: 24pt'>Score: 1080</div><div style='position: fixed; font-size: 18pt; padding: 10px; background-color: white; line-height: 1.5; top: 0; left: 50%; transform: translate(-50%, 0); width: 80%; max-width: 1250px; border-style: solid; border-color: red'>This shows the payout from one draw from the deck.<br>Note that this example draw does not contribute to your score.<br><br>  In the experiment this payout disappears after 1 second. During these practice trials press SPACE BAR to move on.</div>","32",1,"forced_outcome",2,60,-1,"./img/card1.png","","","","","",19,2
"html-keyboard-response",29,141820,"0.0-3.0-0.1-3.1","1066","","<div style='float: left; height: 250px; width: 200px;')></div><div style='float: left; border-style: solid; border-width: 2px; border-color: white; height: 250px; width: 179px;background-image: url(./img/card1.png); height: 250px; width: 179px;')></div><div style='float: left; height: 250px; width: 200px;')></div><div style='position: fixed; font-size: 18pt; padding: 10px; background-color: white; line-height: 1.5; top: 0; left: 50%; transform: translate(-50%, 0); width: 80%; max-width: 1250px; border-style: solid; border-color: red'>Press SPACE BAR to draw one card from the deck ...</div><div style='position: fixed; bottom: 0;  left: 0%; width:100%; text-align: right'>Draw number: 1 of 5&nbsp<br>Deck number: 2 of 4&nbsp</div><div style='position: fixed; bottom: 50px; left: 0%; width:100%; font-size: 24pt'>Score: 1080</div>","32",1,"forced_down",2,-100,-1,"","","","","","",19,2
"html-keyboard-response",30,142469,"0.0-3.0-0.1-4.1","647.5999999977648","","<div style='float: left; height: 250px; width: 200px;')></div><div style='float: left;z-index: 1; display: flex; justify-content: center; align-items: center; height: 250px; width: 179px; border-style: solid; border-style: solid; border-width: 2px; border-color: white; font-size:60px;'><div style='position: absolute; z-index: -1; background-image: url(./img/card2.png); height: 250px; width: 179px; opacity: 0.9;'></div>+80</div><div style='float: left; height: 250px; width: 200px;')></div><div style='position: fixed; bottom: 0;  left: 0%; width:100%; text-align: right'>Draw number: 2 of 5&nbsp<br>Deck number: 2 of 4&nbsp</div><div style='position: fixed; bottom: 50px; left: 0%; width:100%; font-size: 24pt'>Score: 1080</div><div style='position: fixed; font-size: 18pt; padding: 10px; background-color: white; line-height: 1.5; top: 0; left: 50%; transform: translate(-50%, 0); width: 80%; max-width: 1250px; border-style: solid; border-color: red'>This shows the payout from one draw from the deck.<br>Note that this example draw does not contribute to your score.<br><br>  In the experiment this payout disappears after 1 second. During these practice trials press SPACE BAR to move on.</div>","32",1,"forced_outcome",2,80,-1,"./img/card1.png","","","","","",19,2
"html-keyboard-response",31,143058,"0.0-3.0-0.1-5.1","587.8999999985099","","<div style='float: left; height: 250px; width: 200px;')></div><div style='float: left; border-style: solid; border-width: 2px; border-color: white; height: 250px; width: 179px;background-image: url(./img/card1.png); height: 250px; width: 179px;')></div><div style='float: left; height: 250px; width: 200px;')></div><div style='position: fixed; font-size: 18pt; padding: 10px; background-color: white; line-height: 1.5; top: 0; left: 50%; transform: translate(-50%, 0); width: 80%; max-width: 1250px; border-style: solid; border-color: red'>Press SPACE BAR to draw one card from the deck ...</div><div style='position: fixed; bottom: 0;  left: 0%; width:100%; text-align: right'>Draw number: 2 of 5&nbsp<br>Deck number: 2 of 4&nbsp</div><div style='position: fixed; bottom: 50px; left: 0%; width:100%; font-size: 24pt'>Score: 1080</div>","32",1,"forced_down",2,-100,-1,"","","","","","",19,2
"html-keyboard-response",32,143766,"0.0-3.0-0.1-6.1","706.4000000022352","","<div style='float: left; height: 250px; width: 200px;')></div><div style='float: left;z-index: 1; display: flex; justify-content: center; align-items: center; height: 250px; width: 179px; border-style: solid; border-style: solid; border-width: 2px; border-color: white; font-size:60px;'><div style='position: absolute; z-index: -1; background-image: url(./img/card2.png); height: 250px; width: 179px; opacity: 0.9;'></div>+60</div><div style='float: left; height: 250px; width: 200px;')></div><div style='position: fixed; bottom: 0;  left: 0%; width:100%; text-align: right'>Draw number: 3 of 5&nbsp<br>Deck number: 2 of 4&nbsp</div><div style='position: fixed; bottom: 50px; left: 0%; width:100%; font-size: 24pt'>Score: 1080</div><div style='position: fixed; font-size: 18pt; padding: 10px; background-color: white; line-height: 1.5; top: 0; left: 50%; transform: translate(-50%, 0); width: 80%; max-width: 1250px; border-style: solid; border-color: red'>This shows the payout from one draw from the deck.<br>Note that this example draw does not contribute to your score.<br><br>  In the experiment this payout disappears after 1 second. During these practice trials press SPACE BAR to move on.</div>","32",1,"forced_outcome",2,60,-1,"./img/card1.png","","","","","",19,2
"html-keyboard-response",33,144337,"0.0-3.0-0.1-7.1","569.3999999985099","","<div style='float: left; height: 250px; width: 200px;')></div><div style='float: left; border-style: solid; border-width: 2px; border-color: white; height: 250px; width: 179px;background-image: url(./img/card1.png); height: 250px; width: 179px;')></div><div style='float: left; height: 250px; width: 200px;')></div><div style='position: fixed; font-size: 18pt; padding: 10px; background-color: white; line-height: 1.5; top: 0; left: 50%; transform: translate(-50%, 0); width: 80%; max-width: 1250px; border-style: solid; border-color: red'>Press SPACE BAR to draw one card from the deck ...</div><div style='position: fixed; bottom: 0;  left: 0%; width:100%; text-align: right'>Draw number: 3 of 5&nbsp<br>Deck number: 2 of 4&nbsp</div><div style='position: fixed; bottom: 50px; left: 0%; width:100%; font-size: 24pt'>Score: 1080</div>","32",1,"forced_down",2,-100,-1,"","","","","","",19,2
"html-keyboard-response",34,144846,"0.0-3.0-0.1-8.1","507.5999999977648","","<div style='float: left; height: 250px; width: 200px;')></div><div style='float: left;z-index: 1; display: flex; justify-content: center; align-items: center; height: 250px; width: 179px; border-style: solid; border-style: solid; border-width: 2px; border-color: white; font-size:60px;'><div style='position: absolute; z-index: -1; background-image: url(./img/card2.png); height: 250px; width: 179px; opacity: 0.9;'></div>+70</div><div style='float: left; height: 250px; width: 200px;')></div><div style='position: fixed; bottom: 0;  left: 0%; width:100%; text-align: right'>Draw number: 4 of 5&nbsp<br>Deck number: 2 of 4&nbsp</div><div style='position: fixed; bottom: 50px; left: 0%; width:100%; font-size: 24pt'>Score: 1080</div><div style='position: fixed; font-size: 18pt; padding: 10px; background-color: white; line-height: 1.5; top: 0; left: 50%; transform: translate(-50%, 0); width: 80%; max-width: 1250px; border-style: solid; border-color: red'>This shows the payout from one draw from the deck.<br>Note that this example draw does not contribute to your score.<br><br>  In the experiment this payout disappears after 1 second. During these practice trials press SPACE BAR to move on.</div>","32",1,"forced_outcome",2,70,-1,"./img/card1.png","","","","","",19,2
"html-keyboard-response",35,145345,"0.0-3.0-0.1-9.1","495","","<div style='float: left; height: 250px; width: 200px;')></div><div style='float: left; border-style: solid; border-width: 2px; border-color: white; height: 250px; width: 179px;background-image: url(./img/card1.png); height: 250px; width: 179px;')></div><div style='float: left; height: 250px; width: 200px;')></div><div style='position: fixed; font-size: 18pt; padding: 10px; background-color: white; line-height: 1.5; top: 0; left: 50%; transform: translate(-50%, 0); width: 80%; max-width: 1250px; border-style: solid; border-color: red'>Press SPACE BAR to draw one card from the deck ...</div><div style='position: fixed; bottom: 0;  left: 0%; width:100%; text-align: right'>Draw number: 4 of 5&nbsp<br>Deck number: 2 of 4&nbsp</div><div style='position: fixed; bottom: 50px; left: 0%; width:100%; font-size: 24pt'>Score: 1080</div>","32",1,"forced_down",2,-100,-1,"","","","","","",19,2
"html-keyboard-response",36,145888,"0.0-3.0-0.1-10.1","541.5999999977648","","<div style='float: left; height: 250px; width: 200px;')></div><div style='float: left;z-index: 1; display: flex; justify-content: center; align-items: center; height: 250px; width: 179px; border-style: solid; border-style: solid; border-width: 2px; border-color: white; font-size:60px;'><div style='position: absolute; z-index: -1; background-image: url(./img/card2.png); height: 250px; width: 179px; opacity: 0.9;'></div>+60</div><div style='float: left; height: 250px; width: 200px;')></div><div style='position: fixed; bottom: 0;  left: 0%; width:100%; text-align: right'>Draw number: 5 of 5&nbsp<br>Deck number: 2 of 4&nbsp</div><div style='position: fixed; bottom: 50px; left: 0%; width:100%; font-size: 24pt'>Score: 1080</div><div style='position: fixed; font-size: 18pt; padding: 10px; background-color: white; line-height: 1.5; top: 0; left: 50%; transform: translate(-50%, 0); width: 80%; max-width: 1250px; border-style: solid; border-color: red'>This shows the payout from one draw from the deck.<br>Note that this example draw does not contribute to your score.<br><br>  In the experiment this payout disappears after 1 second. During these practice trials press SPACE BAR to move on.</div>","32",1,"forced_outcome",2,60,-1,"./img/card1.png","","","","","",19,2
"html-keyboard-response",37,149221,"0.0-3.0-0.1-11.1","3330","","<div style='float: left; border-style: solid; border-width: 2px; border-color: white; height: 250px; width: 179px;background-image: url(./img/card1.png); height: 250px; width: 179px;')></div><div style='float: left; height: 250px; width: 200px;')></div><div style='float: left; display: flex; justify-content: center; align-items: center; height: 250px; width: 179px; border-style: solid; border-width: 2px; border-color: white; font-size:60px; color:grey; background-color: lightgrey;'')>+60</div><div style='position: fixed; font-size: 18pt; padding: 10px; background-color: white; line-height: 1.5; top: 0; left: 50%; transform: translate(-50%, 0); width: 80%; max-width: 1250px; border-style: solid; border-color: red'>Now you have a choice.  Do you want to draw another card from the deck and get a random payout (which will be similar to the example draws you just made), or do you want a known offer for sure? <br><br>Note that the payout your receive from this choice contributes to your score. <br><br>Press F or J to choose left or right</div><div style='position: fixed; bottom: 0;  left: 0%; width:100%; text-align: right'>Choice&nbsp<br>Deck number: 2 of 4&nbsp</div><div style='position: fixed; bottom: 50px; left: 0%; width:100%; font-size: 24pt'>Score: 1080</div>","74",1,"choice_down",2,-1,1,"./img/card1.png",-1,-1,FALSE,60,"",19,2
"html-keyboard-response",38,150371,"0.0-3.0-0.1-12.1","1148.1000000014901","","<div style='float: left; border-style: solid; border-width: 2px; border-color: white; height: 250px; width: 179px;background-image: url(./img/card1.png); height: 250px; width: 179px;')></div><div style='float: left; height: 250px; width: 200px;')></div><div style='float: left; display: flex; justify-content: center; align-items: center; height: 250px; width: 179px; border-style: solid; border-width: 2px; border-color: black; font-size:60px;'')>+60</div><div style='position: fixed; font-size: 18pt; padding: 10px; background-color: white; line-height: 1.5; top: 0; left: 50%; transform: translate(-50%, 0); width: 80%; max-width: 1250px; border-style: solid; border-color: red'>You chose the known outcome and earned 60 points. In the experiment this outcome will show for 1 second.  In this practice game please press SPACE BAR to continue.</div><div style='position: fixed; bottom: 0;  left: 0%; width:100%; text-align: right'>Choice&nbsp<br>Deck number: 2 of 4&nbsp</div><div style='position: fixed; bottom: 50px; left: 0%; width:100%; font-size: 24pt'>Score: 1140</div>","32",1,"choice_outcome",2,-1,1,"./img/card1.png","","","","",60,19,2
"html-keyboard-response",39,150930,"0.0-3.0-0.2-0.2","557.8000000007451","","<div style='float: left; border-style: solid; border-width: 2px; border-color: white; height: 250px; width: 179px;background-image: url(./img/card1.png); height: 250px; width: 179px;')></div><div style='position: fixed; font-size: 18pt; padding: 10px; background-color: white; line-height: 1.5; top: 0; left: 50%; transform: translate(-50%, 0); width: 80%; max-width: 1250px; border-style: solid; border-color: red'>The words """"New Deck"""" will appear each time there is a new deck with a different average payoff. The task automatically moves on after 1 second.  <br><br>For this practice game, press SPACE BAR to continue.</div><div style='position: fixed; bottom: 0;  left: 0%; width:100%; text-align: right'>Draw number: 0 of 5&nbsp<br>Deck number: 3 of 4&nbsp</div><div style='position: fixed; bottom: 50px; left: 0%; width:100%; font-size: 24pt'>Score: 1140</div>","32",1,"NewDeck",3,"","","","","","","","",19,2
"html-keyboard-response",40,151402,"0.0-3.0-0.2-1.2","470.5999999977648","","<div style='float: left; height: 250px; width: 200px;')></div><div style='float: left; border-style: solid; border-width: 2px; border-color: white; height: 250px; width: 179px;background-image: url(./img/card1.png); height: 250px; width: 179px;')></div><div style='float: left; height: 250px; width: 200px;')></div><div style='position: fixed; font-size: 18pt; padding: 10px; background-color: white; line-height: 1.5; top: 0; left: 50%; transform: translate(-50%, 0); width: 80%; max-width: 1250px; border-style: solid; border-color: red'>Press SPACE BAR to draw one card from the deck ...</div><div style='position: fixed; bottom: 0;  left: 0%; width:100%; text-align: right'>Draw number: 0 of 5&nbsp<br>Deck number: 3 of 4&nbsp</div><div style='position: fixed; bottom: 50px; left: 0%; width:100%; font-size: 24pt'>Score: 1140</div>","32",1,"forced_down",3,-100,-1,"","","","","","",19,2
"html-keyboard-response",41,152038,"0.0-3.0-0.2-2.2","635.6000000014901","","<div style='float: left; height: 250px; width: 200px;')></div><div style='float: left;z-index: 1; display: flex; justify-content: center; align-items: center; height: 250px; width: 179px; border-style: solid; border-width: 2px; border-color: white; font-size:60px;'><div style='position: absolute; z-index: -1; background-image: url(./img/card2.png); height: 250px; width: 179px; opacity: 0.9;'></div>-50</div><div style='float: left; height: 250px; width: 200px;')></div><div style='position: fixed; bottom: 0;  left: 0%; width:100%; text-align: right'>Draw number: 1 of 5&nbsp<br>Deck number: 3 of 4&nbsp</div><div style='position: fixed; bottom: 50px; left: 0%; width:100%; font-size: 24pt'>Score: 1140</div><div style='position: fixed; font-size: 18pt; padding: 10px; background-color: white; line-height: 1.5; top: 0; left: 50%; transform: translate(-50%, 0); width: 80%; max-width: 1250px; border-style: solid; border-color: red'>This shows the payout from one draw from the deck.<br>Note that this example draw does not contribute to your score.<br><br>  In the experiment this payout disappears after 1 second. During these practice trials press SPACE BAR to move on.</div>","32",1,"forced_outcome",3,-50,-1,"./img/card1.png","","","","","",19,2
"html-keyboard-response",42,152910,"0.0-3.0-0.2-3.2","870.3000000007451","","<div style='float: left; height: 250px; width: 200px;')></div><div style='float: left; border-style: solid; border-width: 2px; border-color: white; height: 250px; width: 179px;background-image: url(./img/card1.png); height: 250px; width: 179px;')></div><div style='float: left; height: 250px; width: 200px;')></div><div style='position: fixed; font-size: 18pt; padding: 10px; background-color: white; line-height: 1.5; top: 0; left: 50%; transform: translate(-50%, 0); width: 80%; max-width: 1250px; border-style: solid; border-color: red'>Press SPACE BAR to draw one card from the deck ...</div><div style='position: fixed; bottom: 0;  left: 0%; width:100%; text-align: right'>Draw number: 1 of 5&nbsp<br>Deck number: 3 of 4&nbsp</div><div style='position: fixed; bottom: 50px; left: 0%; width:100%; font-size: 24pt'>Score: 1140</div>","32",1,"forced_down",3,-100,-1,"","","","","","",19,2
"html-keyboard-response",43,153307,"0.0-3.0-0.2-4.2","396.5","","<div style='float: left; height: 250px; width: 200px;')></div><div style='float: left;z-index: 1; display: flex; justify-content: center; align-items: center; height: 250px; width: 179px; border-style: solid; border-width: 2px; border-color: white; font-size:60px;'><div style='position: absolute; z-index: -1; background-image: url(./img/card2.png); height: 250px; width: 179px; opacity: 0.9;'></div>-70</div><div style='float: left; height: 250px; width: 200px;')></div><div style='position: fixed; bottom: 0;  left: 0%; width:100%; text-align: right'>Draw number: 2 of 5&nbsp<br>Deck number: 3 of 4&nbsp</div><div style='position: fixed; bottom: 50px; left: 0%; width:100%; font-size: 24pt'>Score: 1140</div><div style='position: fixed; font-size: 18pt; padding: 10px; background-color: white; line-height: 1.5; top: 0; left: 50%; transform: translate(-50%, 0); width: 80%; max-width: 1250px; border-style: solid; border-color: red'>This shows the payout from one draw from the deck.<br>Note that this example draw does not contribute to your score.<br><br>  In the experiment this payout disappears after 1 second. During these practice trials press SPACE BAR to move on.</div>","32",1,"forced_outcome",3,-70,-1,"./img/card1.png","","","","","",19,2
"html-keyboard-response",44,153703,"0.0-3.0-0.2-5.2","394.5999999977648","","<div style='float: left; height: 250px; width: 200px;')></div><div style='float: left; border-style: solid; border-width: 2px; border-color: white; height: 250px; width: 179px;background-image: url(./img/card1.png); height: 250px; width: 179px;')></div><div style='float: left; height: 250px; width: 200px;')></div><div style='position: fixed; font-size: 18pt; padding: 10px; background-color: white; line-height: 1.5; top: 0; left: 50%; transform: translate(-50%, 0); width: 80%; max-width: 1250px; border-style: solid; border-color: red'>Press SPACE BAR to draw one card from the deck ...</div><div style='position: fixed; bottom: 0;  left: 0%; width:100%; text-align: right'>Draw number: 2 of 5&nbsp<br>Deck number: 3 of 4&nbsp</div><div style='position: fixed; bottom: 50px; left: 0%; width:100%; font-size: 24pt'>Score: 1140</div>","32",1,"forced_down",3,-100,-1,"","","","","","",19,2
"html-keyboard-response",45,154147,"0.0-3.0-0.2-6.2","441.80000000074506","","<div style='float: left; height: 250px; width: 200px;')></div><div style='float: left;z-index: 1; display: flex; justify-content: center; align-items: center; height: 250px; width: 179px; border-style: solid; border-width: 2px; border-color: white; font-size:60px;'><div style='position: absolute; z-index: -1; background-image: url(./img/card2.png); height: 250px; width: 179px; opacity: 0.9;'></div>-10</div><div style='float: left; height: 250px; width: 200px;')></div><div style='position: fixed; bottom: 0;  left: 0%; width:100%; text-align: right'>Draw number: 3 of 5&nbsp<br>Deck number: 3 of 4&nbsp</div><div style='position: fixed; bottom: 50px; left: 0%; width:100%; font-size: 24pt'>Score: 1140</div><div style='position: fixed; font-size: 18pt; padding: 10px; background-color: white; line-height: 1.5; top: 0; left: 50%; transform: translate(-50%, 0); width: 80%; max-width: 1250px; border-style: solid; border-color: red'>This shows the payout from one draw from the deck.<br>Note that this example draw does not contribute to your score.<br><br>  In the experiment this payout disappears after 1 second. During these practice trials press SPACE BAR to move on.</div>","32",1,"forced_outcome",3,-10,-1,"./img/card1.png","","","","","",19,2
"html-keyboard-response",46,154556,"0.0-3.0-0.2-7.2","407.5","","<div style='float: left; height: 250px; width: 200px;')></div><div style='float: left; border-style: solid; border-width: 2px; border-color: white; height: 250px; width: 179px;background-image: url(./img/card1.png); height: 250px; width: 179px;')></div><div style='float: left; height: 250px; width: 200px;')></div><div style='position: fixed; font-size: 18pt; padding: 10px; background-color: white; line-height: 1.5; top: 0; left: 50%; transform: translate(-50%, 0); width: 80%; max-width: 1250px; border-style: solid; border-color: red'>Press SPACE BAR to draw one card from the deck ...</div><div style='position: fixed; bottom: 0;  left: 0%; width:100%; text-align: right'>Draw number: 3 of 5&nbsp<br>Deck number: 3 of 4&nbsp</div><div style='position: fixed; bottom: 50px; left: 0%; width:100%; font-size: 24pt'>Score: 1140</div>","32",1,"forced_down",3,-100,-1,"","","","","","",19,2
"html-keyboard-response",47,154959,"0.0-3.0-0.2-8.2","402.5","","<div style='float: left; height: 250px; width: 200px;')></div><div style='float: left;z-index: 1; display: flex; justify-content: center; align-items: center; height: 250px; width: 179px; border-style: solid; border-width: 2px; border-color: white; font-size:60px;'><div style='position: absolute; z-index: -1; background-image: url(./img/card2.png); height: 250px; width: 179px; opacity: 0.9;'></div>-60</div><div style='float: left; height: 250px; width: 200px;')></div><div style='position: fixed; bottom: 0;  left: 0%; width:100%; text-align: right'>Draw number: 4 of 5&nbsp<br>Deck number: 3 of 4&nbsp</div><div style='position: fixed; bottom: 50px; left: 0%; width:100%; font-size: 24pt'>Score: 1140</div><div style='position: fixed; font-size: 18pt; padding: 10px; background-color: white; line-height: 1.5; top: 0; left: 50%; transform: translate(-50%, 0); width: 80%; max-width: 1250px; border-style: solid; border-color: red'>This shows the payout from one draw from the deck.<br>Note that this example draw does not contribute to your score.<br><br>  In the experiment this payout disappears after 1 second. During these practice trials press SPACE BAR to move on.</div>","32",1,"forced_outcome",3,-60,-1,"./img/card1.png","","","","","",19,2
"html-keyboard-response",48,155345,"0.0-3.0-0.2-9.2","384.1000000014901","","<div style='float: left; height: 250px; width: 200px;')></div><div style='float: left; border-style: solid; border-width: 2px; border-color: white; height: 250px; width: 179px;background-image: url(./img/card1.png); height: 250px; width: 179px;')></div><div style='float: left; height: 250px; width: 200px;')></div><div style='position: fixed; font-size: 18pt; padding: 10px; background-color: white; line-height: 1.5; top: 0; left: 50%; transform: translate(-50%, 0); width: 80%; max-width: 1250px; border-style: solid; border-color: red'>Press SPACE BAR to draw one card from the deck ...</div><div style='position: fixed; bottom: 0;  left: 0%; width:100%; text-align: right'>Draw number: 4 of 5&nbsp<br>Deck number: 3 of 4&nbsp</div><div style='position: fixed; bottom: 50px; left: 0%; width:100%; font-size: 24pt'>Score: 1140</div>","32",1,"forced_down",3,-100,-1,"","","","","","",19,2
"html-keyboard-response",49,155767,"0.0-3.0-0.2-10.2","420.70000000298023","","<div style='float: left; height: 250px; width: 200px;')></div><div style='float: left;z-index: 1; display: flex; justify-content: center; align-items: center; height: 250px; width: 179px; border-style: solid; border-width: 2px; border-color: white; font-size:60px;'><div style='position: absolute; z-index: -1; background-image: url(./img/card2.png); height: 250px; width: 179px; opacity: 0.9;'></div>-530</div><div style='float: left; height: 250px; width: 200px;')></div><div style='position: fixed; bottom: 0;  left: 0%; width:100%; text-align: right'>Draw number: 5 of 5&nbsp<br>Deck number: 3 of 4&nbsp</div><div style='position: fixed; bottom: 50px; left: 0%; width:100%; font-size: 24pt'>Score: 1140</div><div style='position: fixed; font-size: 18pt; padding: 10px; background-color: white; line-height: 1.5; top: 0; left: 50%; transform: translate(-50%, 0); width: 80%; max-width: 1250px; border-style: solid; border-color: red'>This shows the payout from one draw from the deck.<br>Note that this example draw does not contribute to your score.<br><br>  In the experiment this payout disappears after 1 second. During these practice trials press SPACE BAR to move on.</div>","32",1,"forced_outcome",3,-530,-1,"./img/card1.png","","","","","",19,2
"html-keyboard-response",50,157517,"0.0-3.0-0.2-11.2","1747.8999999985099","","<div style='float: left; border-style: solid; border-width: 2px; border-color: white; height: 250px; width: 179px;background-image: url(./img/card1.png); height: 250px; width: 179px;')></div><div style='float: left; height: 250px; width: 200px;')></div><div style='float: left; display: flex; justify-content: center; align-items: center; height: 250px; width: 179px; border-style: solid; border-width: 2px; border-color: white; font-size:60px; color:grey; background-color: lightgrey;'')>-90</div><div style='position: fixed; font-size: 18pt; padding: 10px; background-color: white; line-height: 1.5; top: 0; left: 50%; transform: translate(-50%, 0); width: 80%; max-width: 1250px; border-style: solid; border-color: red'>Now you have a choice.  Do you want to draw another card from the deck and get a random payout (which will be similar to the example draws you just made), or do you want a known offer for sure? <br><br>Note that the payout your receive from this choice contributes to your score. <br><br>Press F or J to choose left or right</div><div style='position: fixed; bottom: 0;  left: 0%; width:100%; text-align: right'>Choice&nbsp<br>Deck number: 3 of 4&nbsp</div><div style='position: fixed; bottom: 50px; left: 0%; width:100%; font-size: 24pt'>Score: 1140</div>","70",1,"choice_down",3,-1,1,"./img/card1.png",-1,-1,TRUE,-90,"",19,2
"html-keyboard-response",51,158687,"0.0-3.0-0.2-12.2","1168.199999999255","","<div style='float: left;z-index: 1; display: flex; justify-content: center; align-items: center; height: 250px; width: 179px; border-style: solid; border-width: 2px; border-color: white; font-size:60px;'><div style='position: absolute; z-index: -1; background-image: url(./img/card2.png); height: 250px; width: 179px; opacity: 0.9;'></div>-60</div><div style='float: left; height: 250px; width: 200px;')></div><div style='float: left; display: flex; justify-content: center; align-items: center; height: 250px; width: 179px; border-style: solid; border-width: 2px; border-color: white; font-size:60px; color:grey; background-color: lightgrey;'')>-90</div><div style='position: fixed; font-size: 18pt; padding: 10px; background-color: white; line-height: 1.5; top: 0; left: 50%; transform: translate(-50%, 0); width: 80%; max-width: 1250px; border-style: solid; border-color: red'>You chose another draw from the deck and earned -60 points. In the experiment this outcome will show for 1 second.  In this practice game please press SPACE BAR to continue.</div><div style='position: fixed; bottom: 0;  left: 0%; width:100%; text-align: right'>Choice&nbsp<br>Deck number: 3 of 4&nbsp</div><div style='position: fixed; bottom: 50px; left: 0%; width:100%; font-size: 24pt'>Score: 1080</div>","32",1,"choice_outcome",3,-1,1,"./img/card2.png","","","","",-60,19,2
"html-keyboard-response",52,159726,"0.0-3.0-0.3-0.3","1037.800000000745","","<div style='float: left; border-style: solid; border-width: 2px; border-color: white; height: 250px; width: 179px;background-image: url(./img/card1.png); height: 250px; width: 179px;')></div><div style='position: fixed; font-size: 18pt; padding: 10px; background-color: white; line-height: 1.5; top: 0; left: 50%; transform: translate(-50%, 0); width: 80%; max-width: 1250px; border-style: solid; border-color: red'>The words """"New Deck"""" will appear each time there is a new deck with a different average payoff. The task automatically moves on after 1 second.  <br><br>For this practice game, press SPACE BAR to continue.</div><div style='position: fixed; bottom: 0;  left: 0%; width:100%; text-align: right'>Draw number: 0 of 5&nbsp<br>Deck number: 4 of 4&nbsp</div><div style='position: fixed; bottom: 50px; left: 0%; width:100%; font-size: 24pt'>Score: 1080</div>","32",1,"NewDeck",4,"","","","","","","","",19,2
"html-keyboard-response",53,160147,"0.0-3.0-0.3-1.3","418.80000000074506","","<div style='float: left; height: 250px; width: 200px;')></div><div style='float: left; border-style: solid; border-width: 2px; border-color: white; height: 250px; width: 179px;background-image: url(./img/card1.png); height: 250px; width: 179px;')></div><div style='float: left; height: 250px; width: 200px;')></div><div style='position: fixed; font-size: 18pt; padding: 10px; background-color: white; line-height: 1.5; top: 0; left: 50%; transform: translate(-50%, 0); width: 80%; max-width: 1250px; border-style: solid; border-color: red'>Press SPACE BAR to draw one card from the deck ...</div><div style='position: fixed; bottom: 0;  left: 0%; width:100%; text-align: right'>Draw number: 0 of 5&nbsp<br>Deck number: 4 of 4&nbsp</div><div style='position: fixed; bottom: 50px; left: 0%; width:100%; font-size: 24pt'>Score: 1080</div>","32",1,"forced_down",4,-100,-1,"","","","","","",19,2
"html-keyboard-response",54,160658,"0.0-3.0-0.3-2.3","509.5","","<div style='float: left; height: 250px; width: 200px;')></div><div style='float: left;z-index: 1; display: flex; justify-content: center; align-items: center; height: 250px; width: 179px; border-style: solid; border-width: 2px; border-color: white; font-size:60px;'><div style='position: absolute; z-index: -1; background-image: url(./img/card2.png); height: 250px; width: 179px; opacity: 0.9;'></div>-40</div><div style='float: left; height: 250px; width: 200px;')></div><div style='position: fixed; bottom: 0;  left: 0%; width:100%; text-align: right'>Draw number: 1 of 5&nbsp<br>Deck number: 4 of 4&nbsp</div><div style='position: fixed; bottom: 50px; left: 0%; width:100%; font-size: 24pt'>Score: 1080</div><div style='position: fixed; font-size: 18pt; padding: 10px; background-color: white; line-height: 1.5; top: 0; left: 50%; transform: translate(-50%, 0); width: 80%; max-width: 1250px; border-style: solid; border-color: red'>This shows the payout from one draw from the deck.<br>Note that this example draw does not contribute to your score.<br><br>  In the experiment this payout disappears after 1 second. During these practice trials press SPACE BAR to move on.</div>","32",1,"forced_outcome",4,-40,-1,"./img/card1.png","","","","","",19,2
"html-keyboard-response",55,161085,"0.0-3.0-0.3-3.3","426.5","","<div style='float: left; height: 250px; width: 200px;')></div><div style='float: left; border-style: solid; border-width: 2px; border-color: white; height: 250px; width: 179px;background-image: url(./img/card1.png); height: 250px; width: 179px;')></div><div style='float: left; height: 250px; width: 200px;')></div><div style='position: fixed; font-size: 18pt; padding: 10px; background-color: white; line-height: 1.5; top: 0; left: 50%; transform: translate(-50%, 0); width: 80%; max-width: 1250px; border-style: solid; border-color: red'>Press SPACE BAR to draw one card from the deck ...</div><div style='position: fixed; bottom: 0;  left: 0%; width:100%; text-align: right'>Draw number: 1 of 5&nbsp<br>Deck number: 4 of 4&nbsp</div><div style='position: fixed; bottom: 50px; left: 0%; width:100%; font-size: 24pt'>Score: 1080</div>","32",1,"forced_down",4,-100,-1,"","","","","","",19,2
"html-keyboard-response",56,161540,"0.0-3.0-0.3-4.3","453.6000000014901","","<div style='float: left; height: 250px; width: 200px;')></div><div style='float: left;z-index: 1; display: flex; justify-content: center; align-items: center; height: 250px; width: 179px; border-style: solid; border-width: 2px; border-color: white; font-size:60px;'><div style='position: absolute; z-index: -1; background-image: url(./img/card2.png); height: 250px; width: 179px; opacity: 0.9;'></div>-50</div><div style='float: left; height: 250px; width: 200px;')></div><div style='position: fixed; bottom: 0;  left: 0%; width:100%; text-align: right'>Draw number: 2 of 5&nbsp<br>Deck number: 4 of 4&nbsp</div><div style='position: fixed; bottom: 50px; left: 0%; width:100%; font-size: 24pt'>Score: 1080</div><div style='position: fixed; font-size: 18pt; padding: 10px; background-color: white; line-height: 1.5; top: 0; left: 50%; transform: translate(-50%, 0); width: 80%; max-width: 1250px; border-style: solid; border-color: red'>This shows the payout from one draw from the deck.<br>Note that this example draw does not contribute to your score.<br><br>  In the experiment this payout disappears after 1 second. During these practice trials press SPACE BAR to move on.</div>","32",1,"forced_outcome",4,-50,-1,"./img/card1.png","","","","","",19,2
"html-keyboard-response",57,162022,"0.0-3.0-0.3-5.3","479.69999999925494","","<div style='float: left; height: 250px; width: 200px;')></div><div style='float: left; border-style: solid; border-width: 2px; border-color: white; height: 250px; width: 179px;background-image: url(./img/card1.png); height: 250px; width: 179px;')></div><div style='float: left; height: 250px; width: 200px;')></div><div style='position: fixed; font-size: 18pt; padding: 10px; background-color: white; line-height: 1.5; top: 0; left: 50%; transform: translate(-50%, 0); width: 80%; max-width: 1250px; border-style: solid; border-color: red'>Press SPACE BAR to draw one card from the deck ...</div><div style='position: fixed; bottom: 0;  left: 0%; width:100%; text-align: right'>Draw number: 2 of 5&nbsp<br>Deck number: 4 of 4&nbsp</div><div style='position: fixed; bottom: 50px; left: 0%; width:100%; font-size: 24pt'>Score: 1080</div>","32",1,"forced_down",4,-100,-1,"","","","","","",19,2
"html-keyboard-response",58,162385,"0.0-3.0-0.3-6.3","361","","<div style='float: left; height: 250px; width: 200px;')></div><div style='float: left;z-index: 1; display: flex; justify-content: center; align-items: center; height: 250px; width: 179px; border-style: solid; border-width: 2px; border-color: white; font-size:60px;'><div style='position: absolute; z-index: -1; background-image: url(./img/card2.png); height: 250px; width: 179px; opacity: 0.9;'></div>-50</div><div style='float: left; height: 250px; width: 200px;')></div><div style='position: fixed; bottom: 0;  left: 0%; width:100%; text-align: right'>Draw number: 3 of 5&nbsp<br>Deck number: 4 of 4&nbsp</div><div style='position: fixed; bottom: 50px; left: 0%; width:100%; font-size: 24pt'>Score: 1080</div><div style='position: fixed; font-size: 18pt; padding: 10px; background-color: white; line-height: 1.5; top: 0; left: 50%; transform: translate(-50%, 0); width: 80%; max-width: 1250px; border-style: solid; border-color: red'>This shows the payout from one draw from the deck.<br>Note that this example draw does not contribute to your score.<br><br>  In the experiment this payout disappears after 1 second. During these practice trials press SPACE BAR to move on.</div>","32",1,"forced_outcome",4,-50,-1,"./img/card1.png","","","","","",19,2
"html-keyboard-response",59,162696,"0.0-3.0-0.3-7.3","310.5","","<div style='float: left; height: 250px; width: 200px;')></div><div style='float: left; border-style: solid; border-width: 2px; border-color: white; height: 250px; width: 179px;background-image: url(./img/card1.png); height: 250px; width: 179px;')></div><div style='float: left; height: 250px; width: 200px;')></div><div style='position: fixed; font-size: 18pt; padding: 10px; background-color: white; line-height: 1.5; top: 0; left: 50%; transform: translate(-50%, 0); width: 80%; max-width: 1250px; border-style: solid; border-color: red'>Press SPACE BAR to draw one card from the deck ...</div><div style='position: fixed; bottom: 0;  left: 0%; width:100%; text-align: right'>Draw number: 3 of 5&nbsp<br>Deck number: 4 of 4&nbsp</div><div style='position: fixed; bottom: 50px; left: 0%; width:100%; font-size: 24pt'>Score: 1080</div>","32",1,"forced_down",4,-100,-1,"","","","","","",19,2
"html-keyboard-response",60,163010,"0.0-3.0-0.3-8.3","312.5999999977648","","<div style='float: left; height: 250px; width: 200px;')></div><div style='float: left;z-index: 1; display: flex; justify-content: center; align-items: center; height: 250px; width: 179px; border-style: solid; border-width: 2px; border-color: white; font-size:60px;'><div style='position: absolute; z-index: -1; background-image: url(./img/card2.png); height: 250px; width: 179px; opacity: 0.9;'></div>-60</div><div style='float: left; height: 250px; width: 200px;')></div><div style='position: fixed; bottom: 0;  left: 0%; width:100%; text-align: right'>Draw number: 4 of 5&nbsp<br>Deck number: 4 of 4&nbsp</div><div style='position: fixed; bottom: 50px; left: 0%; width:100%; font-size: 24pt'>Score: 1080</div><div style='position: fixed; font-size: 18pt; padding: 10px; background-color: white; line-height: 1.5; top: 0; left: 50%; transform: translate(-50%, 0); width: 80%; max-width: 1250px; border-style: solid; border-color: red'>This shows the payout from one draw from the deck.<br>Note that this example draw does not contribute to your score.<br><br>  In the experiment this payout disappears after 1 second. During these practice trials press SPACE BAR to move on.</div>","32",1,"forced_outcome",4,-60,-1,"./img/card1.png","","","","","",19,2
"html-keyboard-response",61,163386,"0.0-3.0-0.3-9.3","374.80000000074506","","<div style='float: left; height: 250px; width: 200px;')></div><div style='float: left; border-style: solid; border-width: 2px; border-color: white; height: 250px; width: 179px;background-image: url(./img/card1.png); height: 250px; width: 179px;')></div><div style='float: left; height: 250px; width: 200px;')></div><div style='position: fixed; font-size: 18pt; padding: 10px; background-color: white; line-height: 1.5; top: 0; left: 50%; transform: translate(-50%, 0); width: 80%; max-width: 1250px; border-style: solid; border-color: red'>Press SPACE BAR to draw one card from the deck ...</div><div style='position: fixed; bottom: 0;  left: 0%; width:100%; text-align: right'>Draw number: 4 of 5&nbsp<br>Deck number: 4 of 4&nbsp</div><div style='position: fixed; bottom: 50px; left: 0%; width:100%; font-size: 24pt'>Score: 1080</div>","32",1,"forced_down",4,-100,-1,"","","","","","",19,2
"html-keyboard-response",62,163769,"0.0-3.0-0.3-10.3","381.4000000022352","","<div style='float: left; height: 250px; width: 200px;')></div><div style='float: left;z-index: 1; display: flex; justify-content: center; align-items: center; height: 250px; width: 179px; border-style: solid; border-width: 2px; border-color: white; font-size:60px;'><div style='position: absolute; z-index: -1; background-image: url(./img/card2.png); height: 250px; width: 179px; opacity: 0.9;'></div>-70</div><div style='float: left; height: 250px; width: 200px;')></div><div style='position: fixed; bottom: 0;  left: 0%; width:100%; text-align: right'>Draw number: 5 of 5&nbsp<br>Deck number: 4 of 4&nbsp</div><div style='position: fixed; bottom: 50px; left: 0%; width:100%; font-size: 24pt'>Score: 1080</div><div style='position: fixed; font-size: 18pt; padding: 10px; background-color: white; line-height: 1.5; top: 0; left: 50%; transform: translate(-50%, 0); width: 80%; max-width: 1250px; border-style: solid; border-color: red'>This shows the payout from one draw from the deck.<br>Note that this example draw does not contribute to your score.<br><br>  In the experiment this payout disappears after 1 second. During these practice trials press SPACE BAR to move on.</div>","32",1,"forced_outcome",4,-70,-1,"./img/card1.png","","","","","",19,2
"html-keyboard-response",63,165113,"0.0-3.0-0.3-11.3","1341","","<div style='float: left; display: flex; justify-content: center; align-items: center; height: 250px; width: 179px; border-style: solid; border-width: 2px; border-color: white; font-size:60px; color:grey; background-color: lightgrey;'')>-40</div><div style='float: left; height: 250px; width: 200px;')></div><div style='float: left; border-style: solid; border-width: 2px; border-color: white; height: 250px; width: 179px;background-image: url(./img/card1.png); height: 250px; width: 179px;')></div><div style='position: fixed; font-size: 18pt; padding: 10px; background-color: white; line-height: 1.5; top: 0; left: 50%; transform: translate(-50%, 0); width: 80%; max-width: 1250px; border-style: solid; border-color: red'>Now you have a choice.  Do you want to draw another card from the deck and get a random payout (which will be similar to the example draws you just made), or do you want a known offer for sure? <br><br>Note that the payout your receive from this choice contributes to your score. <br><br>Press F or J to choose left or right</div><div style='position: fixed; bottom: 0;  left: 0%; width:100%; text-align: right'>Choice&nbsp<br>Deck number: 4 of 4&nbsp</div><div style='position: fixed; bottom: 50px; left: 0%; width:100%; font-size: 24pt'>Score: 1080</div>","74",1,"choice_down",4,-1,0,"./img/card1.png",-1,-1,TRUE,-40,"",19,2
"html-keyboard-response",64,166179,"0.0-3.0-0.3-12.3","1063.699999999255","","<div style='float: left; display: flex; justify-content: center; align-items: center; height: 250px; width: 179px; border-style: solid; border-width: 2px; border-color: white; font-size:60px; color:grey; background-color: lightgrey;'')>-40</div><div style='float: left; height: 250px; width: 200px;')></div><div style='float: left;z-index: 1; display: flex; justify-content: center; align-items: center; height: 250px; width: 179px; border-style: solid; border-width: 2px; border-color: white; font-size:60px;'><div style='position: absolute; z-index: -1; background-image: url(./img/card2.png); height: 250px; width: 179px; opacity: 0.9;'></div>-50</div><div style='position: fixed; font-size: 18pt; padding: 10px; background-color: white; line-height: 1.5; top: 0; left: 50%; transform: translate(-50%, 0); width: 80%; max-width: 1250px; border-style: solid; border-color: red'>You chose another draw from the deck and earned -50 points. In the experiment this outcome will show for 1 second.  In this practice game please press SPACE BAR to continue.</div><div style='position: fixed; bottom: 0;  left: 0%; width:100%; text-align: right'>Choice&nbsp<br>Deck number: 4 of 4&nbsp</div><div style='position: fixed; bottom: 50px; left: 0%; width:100%; font-size: 24pt'>Score: 1030</div>","32",1,"choice_outcome",4,-1,0,"./img/card2.png","","","","",-50,19,2
"html-keyboard-response",65,166650,"0.0-4.0","470.20000000298023","","<div style='position: fixed; font-size: 18pt; padding: 10px; background-color: white; line-height: 1.5; top: 0; left: 50%; transform: translate(-50%, 0); width: 80%; max-width: 1250px; border-style: solid; border-color: red'>Hopefully that all makes sense.  <br><br>You press SPACE BAR to draw from the deck 5 times and then F or J to make your choice.  Try to earn the most points you can!  <br><br>Press SPACE BAR to start the game.</div>","32","","","","","","","","","","","",19,2
"html-keyboard-response",66,167653,"0.0-5.0-0.0-0.0","null","","<div style='position: fixed; font-size:60px; top: 10%; left: 50%; transform: translate(-50%, 0); width: 80%; max-width: 800px; '>New Deck</div><div style='float: left; border-style: solid; border-width: 2px; border-color: white; height: 250px; width: 179px;background-image: url(./img/card1.png); height: 250px; width: 179px;')></div><div style='position: fixed; bottom: 0;  left: 0%; width:100%; text-align: right'>Draw number: 0 of 5&nbsp<br>Deck number: 1 of 100&nbsp</div><div style='position: fixed; bottom: 50px; left: 0%; width:100%; font-size: 24pt'>Score: 1000</div>","null",1,"NewDeck",1,"","","","","","","","",19,2
"html-keyboard-response",67,167768,"0.0-5.0-0.0-1.0","113.60000000149012","","<div style='float: left; height: 250px; width: 200px;')></div><div style='float: left; border-style: solid; border-width: 2px; border-color: white; height: 250px; width: 179px;background-image: url(./img/card1.png); height: 250px; width: 179px;')></div><div style='float: left; height: 250px; width: 200px;')></div><div style='position: fixed; font-size: 18pt; padding: 10px; background-color: white; line-height: 1.5; top: 0; left: 50%; transform: translate(-50%, 0); width: 80%; max-width: 1250px; border-style: solid; border-color: white'>Press SPACE BAR to draw one card.</div><div style='position: fixed; bottom: 0;  left: 0%; width:100%; text-align: right'>Draw number: 0 of 5&nbsp<br>Deck number: 1 of 100&nbsp</div><div style='position: fixed; bottom: 50px; left: 0%; width:100%; font-size: 24pt'>Score: 1000</div>","32",1,"forced_down",1,-100,-1,"","","","","","",19,2
"html-keyboard-response",68,168769,"0.0-5.0-0.0-2.0","null","","<div style='float: left; height: 250px; width: 200px;')></div><div style='float: left;z-index: 1; display: flex; justify-content: center; align-items: center; height: 250px; width: 179px; border-style: solid; border-width: 2px; border-color: white; font-size:60px;'><div style='position: absolute; z-index: -1; background-image: url(./img/card2.png); height: 250px; width: 179px; opacity: 0.9;'></div>-20</div><div style='float: left; height: 250px; width: 200px;')></div><div style='position: fixed; bottom: 0;  left: 0%; width:100%; text-align: right'>Draw number: 1 of 5&nbsp<br>Deck number: 1 of 100&nbsp</div><div style='position: fixed; bottom: 50px; left: 0%; width:100%; font-size: 24pt'>Score: 1000</div>","null",1,"forced_outcome",1,-20,-1,"./img/card1.png","","","","","",19,2
"html-keyboard-response",69,169406,"0.0-5.0-0.0-3.0","634.7999999970198","","<div style='float: left; height: 250px; width: 200px;')></div><div style='float: left; border-style: solid; border-width: 2px; border-color: white; height: 250px; width: 179px;background-image: url(./img/card1.png); height: 250px; width: 179px;')></div><div style='float: left; height: 250px; width: 200px;')></div><div style='position: fixed; font-size: 18pt; padding: 10px; background-color: white; line-height: 1.5; top: 0; left: 50%; transform: translate(-50%, 0); width: 80%; max-width: 1250px; border-style: solid; border-color: white'>Press SPACE BAR to draw one card.</div><div style='position: fixed; bottom: 0;  left: 0%; width:100%; text-align: right'>Draw number: 1 of 5&nbsp<br>Deck number: 1 of 100&nbsp</div><div style='position: fixed; bottom: 50px; left: 0%; width:100%; font-size: 24pt'>Score: 1000</div>","32",1,"forced_down",1,-100,-1,"","","","","","",19,2
"html-keyboard-response",70,170412,"0.0-5.0-0.0-4.0","null","","<div style='float: left; height: 250px; width: 200px;')></div><div style='float: left;z-index: 1; display: flex; justify-content: center; align-items: center; height: 250px; width: 179px; border-style: solid; border-style: solid; border-width: 2px; border-color: white; font-size:60px;'><div style='position: absolute; z-index: -1; background-image: url(./img/card2.png); height: 250px; width: 179px; opacity: 0.9;'></div>+10</div><div style='float: left; height: 250px; width: 200px;')></div><div style='position: fixed; bottom: 0;  left: 0%; width:100%; text-align: right'>Draw number: 2 of 5&nbsp<br>Deck number: 1 of 100&nbsp</div><div style='position: fixed; bottom: 50px; left: 0%; width:100%; font-size: 24pt'>Score: 1000</div>","null",1,"forced_outcome",1,10,-1,"./img/card1.png","","","","","",19,2
"html-keyboard-response",71,170781,"0.0-5.0-0.0-5.0","368.19999999925494","","<div style='float: left; height: 250px; width: 200px;')></div><div style='float: left; border-style: solid; border-width: 2px; border-color: white; height: 250px; width: 179px;background-image: url(./img/card1.png); height: 250px; width: 179px;')></div><div style='float: left; height: 250px; width: 200px;')></div><div style='position: fixed; font-size: 18pt; padding: 10px; background-color: white; line-height: 1.5; top: 0; left: 50%; transform: translate(-50%, 0); width: 80%; max-width: 1250px; border-style: solid; border-color: white'>Press SPACE BAR to draw one card.</div><div style='position: fixed; bottom: 0;  left: 0%; width:100%; text-align: right'>Draw number: 2 of 5&nbsp<br>Deck number: 1 of 100&nbsp</div><div style='position: fixed; bottom: 50px; left: 0%; width:100%; font-size: 24pt'>Score: 1000</div>","32",1,"forced_down",1,-100,-1,"","","","","","",19,2
"html-keyboard-response",72,171788,"0.0-5.0-0.0-6.0","null","","<div style='float: left; height: 250px; width: 200px;')></div><div style='float: left;z-index: 1; display: flex; justify-content: center; align-items: center; height: 250px; width: 179px; border-style: solid; border-width: 2px; border-color: white; font-size:60px;'><div style='position: absolute; z-index: -1; background-image: url(./img/card2.png); height: 250px; width: 179px; opacity: 0.9;'></div>-20</div><div style='float: left; height: 250px; width: 200px;')></div><div style='position: fixed; bottom: 0;  left: 0%; width:100%; text-align: right'>Draw number: 3 of 5&nbsp<br>Deck number: 1 of 100&nbsp</div><div style='position: fixed; bottom: 50px; left: 0%; width:100%; font-size: 24pt'>Score: 1000</div>","null",1,"forced_outcome",1,-20,-1,"./img/card1.png","","","","","",19,2
"html-keyboard-response",73,172119,"0.0-5.0-0.0-7.0","329.19999999925494","","<div style='float: left; height: 250px; width: 200px;')></div><div style='float: left; border-style: solid; border-width: 2px; border-color: white; height: 250px; width: 179px;background-image: url(./img/card1.png); height: 250px; width: 179px;')></div><div style='float: left; height: 250px; width: 200px;')></div><div style='position: fixed; font-size: 18pt; padding: 10px; background-color: white; line-height: 1.5; top: 0; left: 50%; transform: translate(-50%, 0); width: 80%; max-width: 1250px; border-style: solid; border-color: white'>Press SPACE BAR to draw one card.</div><div style='position: fixed; bottom: 0;  left: 0%; width:100%; text-align: right'>Draw number: 3 of 5&nbsp<br>Deck number: 1 of 100&nbsp</div><div style='position: fixed; bottom: 50px; left: 0%; width:100%; font-size: 24pt'>Score: 1000</div>","32",1,"forced_down",1,-100,-1,"","","","","","",19,2
"html-keyboard-response",74,173122,"0.0-5.0-0.0-8.0","null","","<div style='float: left; height: 250px; width: 200px;')></div><div style='float: left;z-index: 1; display: flex; justify-content: center; align-items: center; height: 250px; width: 179px; border-style: solid; border-width: 2px; border-color: white; font-size:60px;'><div style='position: absolute; z-index: -1; background-image: url(./img/card2.png); height: 250px; width: 179px; opacity: 0.9;'></div>0</div><div style='float: left; height: 250px; width: 200px;')></div><div style='position: fixed; bottom: 0;  left: 0%; width:100%; text-align: right'>Draw number: 4 of 5&nbsp<br>Deck number: 1 of 100&nbsp</div><div style='position: fixed; bottom: 50px; left: 0%; width:100%; font-size: 24pt'>Score: 1000</div>","null",1,"forced_outcome",1,0,-1,"./img/card1.png","","","","","",19,2
"html-keyboard-response",75,173505,"0.0-5.0-0.0-9.0","382.5","","<div style='float: left; height: 250px; width: 200px;')></div><div style='float: left; border-style: solid; border-width: 2px; border-color: white; height: 250px; width: 179px;background-image: url(./img/card1.png); height: 250px; width: 179px;')></div><div style='float: left; height: 250px; width: 200px;')></div><div style='position: fixed; font-size: 18pt; padding: 10px; background-color: white; line-height: 1.5; top: 0; left: 50%; transform: translate(-50%, 0); width: 80%; max-width: 1250px; border-style: solid; border-color: white'>Press SPACE BAR to draw one card.</div><div style='position: fixed; bottom: 0;  left: 0%; width:100%; text-align: right'>Draw number: 4 of 5&nbsp<br>Deck number: 1 of 100&nbsp</div><div style='position: fixed; bottom: 50px; left: 0%; width:100%; font-size: 24pt'>Score: 1000</div>","32",1,"forced_down",1,-100,-1,"","","","","","",19,2
"html-keyboard-response",76,174511,"0.0-5.0-0.0-10.0","null","","<div style='float: left; height: 250px; width: 200px;')></div><div style='float: left;z-index: 1; display: flex; justify-content: center; align-items: center; height: 250px; width: 179px; border-style: solid; border-width: 2px; border-color: white; font-size:60px;'><div style='position: absolute; z-index: -1; background-image: url(./img/card2.png); height: 250px; width: 179px; opacity: 0.9;'></div>-30</div><div style='float: left; height: 250px; width: 200px;')></div><div style='position: fixed; bottom: 0;  left: 0%; width:100%; text-align: right'>Draw number: 5 of 5&nbsp<br>Deck number: 1 of 100&nbsp</div><div style='position: fixed; bottom: 50px; left: 0%; width:100%; font-size: 24pt'>Score: 1000</div>","null",1,"forced_outcome",1,-30,-1,"./img/card1.png","","","","","",19,2
"html-keyboard-response",77,176652,"0.0-5.0-0.0-11.0","2138.800000000745","","<div style='float: left; border-style: solid; border-width: 2px; border-color: white; height: 250px; width: 179px;background-image: url(./img/card1.png); height: 250px; width: 179px;')></div><div style='float: left; height: 250px; width: 200px;')></div><div style='float: left; display: flex; justify-content: center; align-items: center; height: 250px; width: 179px; border-style: solid; border-width: 2px; border-color: white; font-size:60px; color:grey; background-color: lightgrey;'')>-30</div><div style='position: fixed; font-size: 18pt; padding: 10px; background-color: white; line-height: 1.5; top: 0; left: 50%; transform: translate(-50%, 0); width: 80%; max-width: 1250px; border-style: solid; border-color: white'>Do you want another draw from the deck or -30 points for sure?<br><br>Press F to choose left, J to choose right</div><div style='position: fixed; bottom: 0;  left: 0%; width:100%; text-align: right'>Choice&nbsp<br>Deck number: 1 of 100&nbsp</div><div style='position: fixed; bottom: 50px; left: 0%; width:100%; font-size: 24pt'>Score: 1000</div>","70",1,"choice_down",1,-1,1,"./img/card1.png",-1,-1,TRUE,-30,"",19,2
"html-keyboard-response",78,177659,"0.0-5.0-0.0-12.0","null","","<div style='float: left;z-index: 1; display: flex; justify-content: center; align-items: center; height: 250px; width: 179px; border-style: solid; border-width: 2px; border-color: white; font-size:60px;'><div style='position: absolute; z-index: -1; background-image: url(./img/card2.png); height: 250px; width: 179px; opacity: 0.9;'></div>-40</div><div style='float: left; height: 250px; width: 200px;')></div><div style='float: left; display: flex; justify-content: center; align-items: center; height: 250px; width: 179px; border-style: solid; border-width: 2px; border-color: white; font-size:60px; color:grey; background-color: lightgrey;'')>-30</div><div style='position: fixed; bottom: 0;  left: 0%; width:100%; text-align: right'>Choice&nbsp<br>Deck number: 1 of 100&nbsp</div><div style='position: fixed; bottom: 50px; left: 0%; width:100%; font-size: 24pt'>Score: 960</div>","null",1,"choice_outcome",1,-1,1,"./img/card2.png","","","","",-40,19,2
"html-keyboard-response",79,178661,"0.0-5.0-0.1-0.1","null","","<div style='position: fixed; font-size:60px; top: 10%; left: 50%; transform: translate(-50%, 0); width: 80%; max-width: 800px; '>New Deck</div><div style='float: left; border-style: solid; border-width: 2px; border-color: white; height: 250px; width: 179px;background-image: url(./img/card1.png); height: 250px; width: 179px;')></div><div style='position: fixed; bottom: 0;  left: 0%; width:100%; text-align: right'>Draw number: 0 of 5&nbsp<br>Deck number: 2 of 100&nbsp</div><div style='position: fixed; bottom: 50px; left: 0%; width:100%; font-size: 24pt'>Score: 960</div>","null",1,"NewDeck",2,"","","","","","","","",19,2
"html-keyboard-response",80,179271,"0.0-5.0-0.1-1.1","609","","<div style='float: left; height: 250px; width: 200px;')></div><div style='float: left; border-style: solid; border-width: 2px; border-color: white; height: 250px; width: 179px;background-image: url(./img/card1.png); height: 250px; width: 179px;')></div><div style='float: left; height: 250px; width: 200px;')></div><div style='position: fixed; font-size: 18pt; padding: 10px; background-color: white; line-height: 1.5; top: 0; left: 50%; transform: translate(-50%, 0); width: 80%; max-width: 1250px; border-style: solid; border-color: white'>Press SPACE BAR to draw one card.</div><div style='position: fixed; bottom: 0;  left: 0%; width:100%; text-align: right'>Draw number: 0 of 5&nbsp<br>Deck number: 2 of 100&nbsp</div><div style='position: fixed; bottom: 50px; left: 0%; width:100%; font-size: 24pt'>Score: 960</div>","32",1,"forced_down",2,-100,-1,"","","","","","",19,2
"html-keyboard-response",81,180275,"0.0-5.0-0.1-2.1","null","","<div style='float: left; height: 250px; width: 200px;')></div><div style='float: left;z-index: 1; display: flex; justify-content: center; align-items: center; height: 250px; width: 179px; border-style: solid; border-width: 2px; border-color: white; font-size:60px;'><div style='position: absolute; z-index: -1; background-image: url(./img/card2.png); height: 250px; width: 179px; opacity: 0.9;'></div>-1050</div><div style='float: left; height: 250px; width: 200px;')></div><div style='position: fixed; bottom: 0;  left: 0%; width:100%; text-align: right'>Draw number: 1 of 5&nbsp<br>Deck number: 2 of 100&nbsp</div><div style='position: fixed; bottom: 50px; left: 0%; width:100%; font-size: 24pt'>Score: 960</div>","null",1,"forced_outcome",2,-1050,-1,"./img/card1.png","","","","","",19,2
"html-keyboard-response",82,180313,"0.0-5.0-0.1-3.1","37.600000001490116","","<div style='float: left; height: 250px; width: 200px;')></div><div style='float: left; border-style: solid; border-width: 2px; border-color: white; height: 250px; width: 179px;background-image: url(./img/card1.png); height: 250px; width: 179px;')></div><div style='float: left; height: 250px; width: 200px;')></div><div style='position: fixed; font-size: 18pt; padding: 10px; background-color: white; line-height: 1.5; top: 0; left: 50%; transform: translate(-50%, 0); width: 80%; max-width: 1250px; border-style: solid; border-color: white'>Press SPACE BAR to draw one card.</div><div style='position: fixed; bottom: 0;  left: 0%; width:100%; text-align: right'>Draw number: 1 of 5&nbsp<br>Deck number: 2 of 100&nbsp</div><div style='position: fixed; bottom: 50px; left: 0%; width:100%; font-size: 24pt'>Score: 960</div>","32",1,"forced_down",2,-100,-1,"","","","","","",19,2
"html-keyboard-response",83,181318,"0.0-5.0-0.1-4.1","null","","<div style='float: left; height: 250px; width: 200px;')></div><div style='float: left;z-index: 1; display: flex; justify-content: center; align-items: center; height: 250px; width: 179px; border-style: solid; border-width: 2px; border-color: white; font-size:60px;'><div style='position: absolute; z-index: -1; background-image: url(./img/card2.png); height: 250px; width: 179px; opacity: 0.9;'></div>-50</div><div style='float: left; height: 250px; width: 200px;')></div><div style='position: fixed; bottom: 0;  left: 0%; width:100%; text-align: right'>Draw number: 2 of 5&nbsp<br>Deck number: 2 of 100&nbsp</div><div style='position: fixed; bottom: 50px; left: 0%; width:100%; font-size: 24pt'>Score: 960</div>","null",1,"forced_outcome",2,-50,-1,"./img/card1.png","","","","","",19,2
"html-keyboard-response",84,181686,"0.0-5.0-0.1-5.1","366.19999999925494","","<div style='float: left; height: 250px; width: 200px;')></div><div style='float: left; border-style: solid; border-width: 2px; border-color: white; height: 250px; width: 179px;background-image: url(./img/card1.png); height: 250px; width: 179px;')></div><div style='float: left; height: 250px; width: 200px;')></div><div style='position: fixed; font-size: 18pt; padding: 10px; background-color: white; line-height: 1.5; top: 0; left: 50%; transform: translate(-50%, 0); width: 80%; max-width: 1250px; border-style: solid; border-color: white'>Press SPACE BAR to draw one card.</div><div style='position: fixed; bottom: 0;  left: 0%; width:100%; text-align: right'>Draw number: 2 of 5&nbsp<br>Deck number: 2 of 100&nbsp</div><div style='position: fixed; bottom: 50px; left: 0%; width:100%; font-size: 24pt'>Score: 960</div>","32",1,"forced_down",2,-100,-1,"","","","","","",19,2
"html-keyboard-response",85,182687,"0.0-5.0-0.1-6.1","null","","<div style='float: left; height: 250px; width: 200px;')></div><div style='float: left;z-index: 1; display: flex; justify-content: center; align-items: center; height: 250px; width: 179px; border-style: solid; border-width: 2px; border-color: white; font-size:60px;'><div style='position: absolute; z-index: -1; background-image: url(./img/card2.png); height: 250px; width: 179px; opacity: 0.9;'></div>-50</div><div style='float: left; height: 250px; width: 200px;')></div><div style='position: fixed; bottom: 0;  left: 0%; width:100%; text-align: right'>Draw number: 3 of 5&nbsp<br>Deck number: 2 of 100&nbsp</div><div style='position: fixed; bottom: 50px; left: 0%; width:100%; font-size: 24pt'>Score: 960</div>","null",1,"forced_outcome",2,-50,-1,"./img/card1.png","","","","","",19,2
"html-keyboard-response",86,183027,"0.0-5.0-0.1-7.1","338.4000000022352","","<div style='float: left; height: 250px; width: 200px;')></div><div style='float: left; border-style: solid; border-width: 2px; border-color: white; height: 250px; width: 179px;background-image: url(./img/card1.png); height: 250px; width: 179px;')></div><div style='float: left; height: 250px; width: 200px;')></div><div style='position: fixed; font-size: 18pt; padding: 10px; background-color: white; line-height: 1.5; top: 0; left: 50%; transform: translate(-50%, 0); width: 80%; max-width: 1250px; border-style: solid; border-color: white'>Press SPACE BAR to draw one card.</div><div style='position: fixed; bottom: 0;  left: 0%; width:100%; text-align: right'>Draw number: 3 of 5&nbsp<br>Deck number: 2 of 100&nbsp</div><div style='position: fixed; bottom: 50px; left: 0%; width:100%; font-size: 24pt'>Score: 960</div>","32",1,"forced_down",2,-100,-1,"","","","","","",19,2
"html-keyboard-response",87,184033,"0.0-5.0-0.1-8.1","null","","<div style='float: left; height: 250px; width: 200px;')></div><div style='float: left;z-index: 1; display: flex; justify-content: center; align-items: center; height: 250px; width: 179px; border-style: solid; border-width: 2px; border-color: white; font-size:60px;'><div style='position: absolute; z-index: -1; background-image: url(./img/card2.png); height: 250px; width: 179px; opacity: 0.9;'></div>-70</div><div style='float: left; height: 250px; width: 200px;')></div><div style='position: fixed; bottom: 0;  left: 0%; width:100%; text-align: right'>Draw number: 4 of 5&nbsp<br>Deck number: 2 of 100&nbsp</div><div style='position: fixed; bottom: 50px; left: 0%; width:100%; font-size: 24pt'>Score: 960</div>","null",1,"forced_outcome",2,-70,-1,"./img/card1.png","","","","","",19,2
"html-keyboard-response",88,184385,"0.0-5.0-0.1-9.1","351.30000000074506","","<div style='float: left; height: 250px; width: 200px;')></div><div style='float: left; border-style: solid; border-width: 2px; border-color: white; height: 250px; width: 179px;background-image: url(./img/card1.png); height: 250px; width: 179px;')></div><div style='float: left; height: 250px; width: 200px;')></div><div style='position: fixed; font-size: 18pt; padding: 10px; background-color: white; line-height: 1.5; top: 0; left: 50%; transform: translate(-50%, 0); width: 80%; max-width: 1250px; border-style: solid; border-color: white'>Press SPACE BAR to draw one card.</div><div style='position: fixed; bottom: 0;  left: 0%; width:100%; text-align: right'>Draw number: 4 of 5&nbsp<br>Deck number: 2 of 100&nbsp</div><div style='position: fixed; bottom: 50px; left: 0%; width:100%; font-size: 24pt'>Score: 960</div>","32",1,"forced_down",2,-100,-1,"","","","","","",19,2
"html-keyboard-response",89,185388,"0.0-5.0-0.1-10.1","null","","<div style='float: left; height: 250px; width: 200px;')></div><div style='float: left;z-index: 1; display: flex; justify-content: center; align-items: center; height: 250px; width: 179px; border-style: solid; border-width: 2px; border-color: white; font-size:60px;'><div style='position: absolute; z-index: -1; background-image: url(./img/card2.png); height: 250px; width: 179px; opacity: 0.9;'></div>-80</div><div style='float: left; height: 250px; width: 200px;')></div><div style='position: fixed; bottom: 0;  left: 0%; width:100%; text-align: right'>Draw number: 5 of 5&nbsp<br>Deck number: 2 of 100&nbsp</div><div style='position: fixed; bottom: 50px; left: 0%; width:100%; font-size: 24pt'>Score: 960</div>","null",1,"forced_outcome",2,-80,-1,"./img/card1.png","","","","","",19,2
"html-keyboard-response",90,191159,"0.0-5.0-0.1-11.1","5767.300000000745","","<div style='float: left; display: flex; justify-content: center; align-items: center; height: 250px; width: 179px; border-style: solid; border-width: 2px; border-color: white; font-size:60px; color:grey; background-color: lightgrey;'')>-90</div><div style='float: left; height: 250px; width: 200px;')></div><div style='float: left; border-style: solid; border-width: 2px; border-color: white; height: 250px; width: 179px;background-image: url(./img/card1.png); height: 250px; width: 179px;')></div><div style='position: fixed; font-size: 18pt; padding: 10px; background-color: white; line-height: 1.5; top: 0; left: 50%; transform: translate(-50%, 0); width: 80%; max-width: 1250px; border-style: solid; border-color: white'>Do you want another draw from the deck or -90 points for sure?<br><br>Press F to choose left, J to choose right</div><div style='position: fixed; bottom: 0;  left: 0%; width:100%; text-align: right'>Choice&nbsp<br>Deck number: 2 of 100&nbsp</div><div style='position: fixed; bottom: 50px; left: 0%; width:100%; font-size: 24pt'>Score: 960</div>","74",1,"choice_down",2,-1,0,"./img/card1.png",-1,-1,TRUE,-90,"",19,2
"html-keyboard-response",91,192165,"0.0-5.0-0.1-12.1","null","","<div style='float: left; display: flex; justify-content: center; align-items: center; height: 250px; width: 179px; border-style: solid; border-width: 2px; border-color: white; font-size:60px; color:grey; background-color: lightgrey;'')>-90</div><div style='float: left; height: 250px; width: 200px;')></div><div style='float: left;z-index: 1; display: flex; justify-content: center; align-items: center; height: 250px; width: 179px; border-style: solid; border-width: 2px; border-color: white; font-size:60px;'><div style='position: absolute; z-index: -1; background-image: url(./img/card2.png); height: 250px; width: 179px; opacity: 0.9;'></div>-90</div><div style='position: fixed; bottom: 0;  left: 0%; width:100%; text-align: right'>Choice&nbsp<br>Deck number: 2 of 100&nbsp</div><div style='position: fixed; bottom: 50px; left: 0%; width:100%; font-size: 24pt'>Score: 870</div>","null",1,"choice_outcome",2,-1,0,"./img/card2.png","","","","",-90,19,2
"html-keyboard-response",92,193168,"0.0-5.0-0.2-0.2","null","","<div style='position: fixed; font-size:60px; top: 10%; left: 50%; transform: translate(-50%, 0); width: 80%; max-width: 800px; '>New Deck</div><div style='float: left; border-style: solid; border-width: 2px; border-color: white; height: 250px; width: 179px;background-image: url(./img/card1.png); height: 250px; width: 179px;')></div><div style='position: fixed; bottom: 0;  left: 0%; width:100%; text-align: right'>Draw number: 0 of 5&nbsp<br>Deck number: 3 of 100&nbsp</div><div style='position: fixed; bottom: 50px; left: 0%; width:100%; font-size: 24pt'>Score: 870</div>","null",1,"NewDeck",3,"","","","","","","","",19,2
"html-keyboard-response",93,193185,"0.0-5.0-0.2-1.2","16.100000001490116","","<div style='float: left; height: 250px; width: 200px;')></div><div style='float: left; border-style: solid; border-width: 2px; border-color: white; height: 250px; width: 179px;background-image: url(./img/card1.png); height: 250px; width: 179px;')></div><div style='float: left; height: 250px; width: 200px;')></div><div style='position: fixed; font-size: 18pt; padding: 10px; background-color: white; line-height: 1.5; top: 0; left: 50%; transform: translate(-50%, 0); width: 80%; max-width: 1250px; border-style: solid; border-color: white'>Press SPACE BAR to draw one card.</div><div style='position: fixed; bottom: 0;  left: 0%; width:100%; text-align: right'>Draw number: 0 of 5&nbsp<br>Deck number: 3 of 100&nbsp</div><div style='position: fixed; bottom: 50px; left: 0%; width:100%; font-size: 24pt'>Score: 870</div>","32",1,"forced_down",3,-100,-1,"","","","","","",19,2
"html-keyboard-response",94,194187,"0.0-5.0-0.2-2.2","null","","<div style='float: left; height: 250px; width: 200px;')></div><div style='float: left;z-index: 1; display: flex; justify-content: center; align-items: center; height: 250px; width: 179px; border-style: solid; border-style: solid; border-width: 2px; border-color: white; font-size:60px;'><div style='position: absolute; z-index: -1; background-image: url(./img/card2.png); height: 250px; width: 179px; opacity: 0.9;'></div>+110</div><div style='float: left; height: 250px; width: 200px;')></div><div style='position: fixed; bottom: 0;  left: 0%; width:100%; text-align: right'>Draw number: 1 of 5&nbsp<br>Deck number: 3 of 100&nbsp</div><div style='position: fixed; bottom: 50px; left: 0%; width:100%; font-size: 24pt'>Score: 870</div>","null",1,"forced_outcome",3,110,-1,"./img/card1.png","","","","","",19,2
"html-keyboard-response",95,194502,"0.0-5.0-0.2-3.2","313.6000000014901","","<div style='float: left; height: 250px; width: 200px;')></div><div style='float: left; border-style: solid; border-width: 2px; border-color: white; height: 250px; width: 179px;background-image: url(./img/card1.png); height: 250px; width: 179px;')></div><div style='float: left; height: 250px; width: 200px;')></div><div style='position: fixed; font-size: 18pt; padding: 10px; background-color: white; line-height: 1.5; top: 0; left: 50%; transform: translate(-50%, 0); width: 80%; max-width: 1250px; border-style: solid; border-color: white'>Press SPACE BAR to draw one card.</div><div style='position: fixed; bottom: 0;  left: 0%; width:100%; text-align: right'>Draw number: 1 of 5&nbsp<br>Deck number: 3 of 100&nbsp</div><div style='position: fixed; bottom: 50px; left: 0%; width:100%; font-size: 24pt'>Score: 870</div>","32",1,"forced_down",3,-100,-1,"","","","","","",19,2
"html-keyboard-response",96,195507,"0.0-5.0-0.2-4.2","null","","<div style='float: left; height: 250px; width: 200px;')></div><div style='float: left;z-index: 1; display: flex; justify-content: center; align-items: center; height: 250px; width: 179px; border-style: solid; border-style: solid; border-width: 2px; border-color: white; font-size:60px;'><div style='position: absolute; z-index: -1; background-image: url(./img/card2.png); height: 250px; width: 179px; opacity: 0.9;'></div>+90</div><div style='float: left; height: 250px; width: 200px;')></div><div style='position: fixed; bottom: 0;  left: 0%; width:100%; text-align: right'>Draw number: 2 of 5&nbsp<br>Deck number: 3 of 100&nbsp</div><div style='position: fixed; bottom: 50px; left: 0%; width:100%; font-size: 24pt'>Score: 870</div>","null",1,"forced_outcome",3,90,-1,"./img/card1.png","","","","","",19,2
"html-keyboard-response",97,195903,"0.0-5.0-0.2-5.2","395","","<div style='float: left; height: 250px; width: 200px;')></div><div style='float: left; border-style: solid; border-width: 2px; border-color: white; height: 250px; width: 179px;background-image: url(./img/card1.png); height: 250px; width: 179px;')></div><div style='float: left; height: 250px; width: 200px;')></div><div style='position: fixed; font-size: 18pt; padding: 10px; background-color: white; line-height: 1.5; top: 0; left: 50%; transform: translate(-50%, 0); width: 80%; max-width: 1250px; border-style: solid; border-color: white'>Press SPACE BAR to draw one card.</div><div style='position: fixed; bottom: 0;  left: 0%; width:100%; text-align: right'>Draw number: 2 of 5&nbsp<br>Deck number: 3 of 100&nbsp</div><div style='position: fixed; bottom: 50px; left: 0%; width:100%; font-size: 24pt'>Score: 870</div>","32",1,"forced_down",3,-100,-1,"","","","","","",19,2
