"trial_type","trial_index","time_elapsed","internal_node_id","rt","responses","stimulus","key_press","block","type","counter","reward","side","card","mean","sigma","choseDeck","offer","reward_on_choice","age","gender"
"pavlovia",0,5,"0.0-0.0","","","","","","","","","","","","","","","",21,2
"survey-text",1,2785,"0.0-1.0","2771.2999999970198","{""""Start"""":""""""""}","","","","","","","","","","","","","",21,2
"html-keyboard-response",2,4457,"0.0-2.0-0.0","1670.5","","<div style='position: fixed; font-size: 18pt; padding: 10px; background-color: white; line-height: 1.5; top: 0; left: 50%; transform: translate(-50%, 0); width: 80%; max-width: 1250px; border-style: solid; border-color: red'>Welcome to the experiment!<br><br>[press any key to continue]</div>","32","","","","","","","","","","","",21,2
"html-keyboard-response",3,10024,"0.0-2.0-1.0","5565.29999999702","","<div style='position: fixed; font-size: 18pt; padding: 10px; background-color: white; line-height: 1.5; top: 0; left: 50%; transform: translate(-50%, 0); width: 80%; max-width: 1250px; border-style: solid; border-color: red'>In this experiment you will make decisions about whether to draw a card to get a variable payout or take a sure-thing payout.<br><br>[press any key to continue]</div>","32","","","","","","","","","","","",21,2
"html-keyboard-response",4,15684,"0.0-2.0-2.0","5659.20000000298","","<div style='position: fixed; font-size: 18pt; padding: 10px; background-color: white; line-height: 1.5; top: 0; left: 50%; transform: translate(-50%, 0); width: 80%; max-width: 1250px; border-style: solid; border-color: red'>Here is what your choice might look like. On the left is a deck of cards that has variable payouts and on the right a sure-thing offer of 100 points.<br><br>[press any key to continue]</div><div style='float: left; border-style: solid; border-width: 2px; border-color: white; height: 250px; width: 179px;background-image: url(./img/card1.png); height: 250px; width: 179px;')></div><div style='float: left; height: 250px; width: 200px;')></div><div style='float: left; display: flex; justify-content: center; align-items: center; height: 250px; width: 179px; border-style: solid; border-width: 2px; border-color: white; font-size:60px; color:grey; background-color: lightgrey;'')>+100</div>","32","","","","","","","","","","","",21,2
"html-keyboard-response",5,22532,"0.0-2.0-3.0","6846.79999999702","","<div style='position: fixed; font-size: 18pt; padding: 10px; background-color: white; line-height: 1.5; top: 0; left: 50%; transform: translate(-50%, 0); width: 80%; max-width: 1250px; border-style: solid; border-color: red'>You will press the 'F' key to choose the left-side option (deck). <br>You will press the 'J' key to choose the right-side option (sure-thing offer).<br><br>[press any key to continue]</div><div style='float: left; border-style: solid; border-width: 2px; border-color: white; height: 250px; width: 179px;background-image: url(./img/card1.png); height: 250px; width: 179px;')></div><div style='float: left; height: 250px; width: 200px;')></div><div style='float: left; display: flex; justify-content: center; align-items: center; height: 250px; width: 179px; border-style: solid; border-width: 2px; border-color: white; font-size:60px; color:grey; background-color: lightgrey;'')>+100</div>","32","","","","","","","","","","","",21,2
"html-keyboard-response",6,26915,"0.0-2.0-4.0","4381.600000008941","","<div style='position: fixed; font-size: 18pt; padding: 10px; background-color: white; line-height: 1.5; top: 0; left: 50%; transform: translate(-50%, 0); width: 80%; max-width: 1250px; border-style: solid; border-color: red'>If you choose the deck, you will get that card's hidden offer. <br><br>The offer could be a positive or negative.  <br><br>[press any key to continue]</div><div style='float: left; border-style: solid; border-width: 2px; border-color: white; height: 250px; width: 179px;background-image: url(./img/card1.png); height: 250px; width: 179px;')></div><div style='float: left; height: 250px; width: 200px;')></div><div style='float: left; display: flex; justify-content: center; align-items: center; height: 250px; width: 179px; border-style: solid; border-width: 2px; border-color: white; font-size:60px; color:grey; background-color: lightgrey;'')>+100</div>","32","","","","","","","","","","","",21,2
"html-keyboard-response",7,31183,"0.0-2.0-5.0","4266","","<div style='position: fixed; font-size: 18pt; padding: 10px; background-color: white; line-height: 1.5; top: 0; left: 50%; transform: translate(-50%, 0); width: 80%; max-width: 1250px; border-style: solid; border-color: red'>In this case the hidden card was worth +200 points, so the variable deck was a better than the sure-thing. <br><br>[press any key to continue]</div><div style='float: left; display: flex; justify-content: center; align-items: center; height: 250px; width: 179px; border-style: solid; border-width: 2px; border-color: black; font-size:60px;'')>+200</div><div style='float: left; height: 250px; width: 200px;')></div><div style='float: left; display: flex; justify-content: center; align-items: center; height: 250px; width: 179px; border-style: solid; border-width: 2px; border-color: white; font-size:60px; color:grey; background-color: lightgrey;'')>+100</div>","32","","","","","","","","","","","",21,2
"html-keyboard-response",8,33259,"0.0-2.0-6.0","2075.4000000059605","","<div style='position: fixed; font-size: 18pt; padding: 10px; background-color: white; line-height: 1.5; top: 0; left: 50%; transform: translate(-50%, 0); width: 80%; max-width: 1250px; border-style: solid; border-color: red'>On this trial, the hidden card was worth -150 points, so the sure-thing was better than the variable deck.<br><br>[press any key to continue]</div><div style='float: left; display: flex; justify-content: center; align-items: center; height: 250px; width: 179px; border-style: solid; border-width: 2px; border-color: black; font-size:60px;'')>-150</div><div style='float: left; height: 250px; width: 200px;')></div><div style='float: left; display: flex; justify-content: center; align-items: center; height: 250px; width: 179px; border-style: solid; border-width: 2px; border-color: white; font-size:60px; color:grey; background-color: lightgrey;'')>+100</div>","32","","","","","","","","","","","",21,2
"html-keyboard-response",9,36116,"0.0-2.0-7.0","2855.2000000029802","","<div style='position: fixed; font-size: 18pt; padding: 10px; background-color: white; line-height: 1.5; top: 0; left: 50%; transform: translate(-50%, 0); width: 80%; max-width: 1250px; border-style: solid; border-color: red'>Every decision involves a different deck of cards with variable payouts. <br>Some decks are better on average and some decks are worse on average. <br><br>[press any key to continue]</div>","32","","","","","","","","","","","",21,2
"html-keyboard-response",10,43637,"0.0-2.0-8.0","7520.4000000059605","","<div style='position: fixed; font-size: 18pt; padding: 10px; background-color: white; line-height: 1.5; top: 0; left: 50%; transform: translate(-50%, 0); width: 80%; max-width: 1250px; border-style: solid; border-color: red'>To give you a sense of whether the deck is good or bad, you will be shown 5 cards from each deck before you are asked to choose between the variable deck option and the sure-thing option. <br><br>To see these example cards you will press the SPACE BAR.<br><br>[press any key to continue]</div>","32","","","","","","","","","","","",21,2
"html-keyboard-response",11,50059,"0.0-2.0-9.0","6420.20000000298","","<div style='position: fixed; font-size: 18pt; padding: 10px; background-color: white; line-height: 1.5; top: 0; left: 50%; transform: translate(-50%, 0); width: 80%; max-width: 1250px; border-style: solid; border-color: red'>To help you keep track of how well you are doing, your score will be shown at the bottom of the screen.  <br><br>You will start from 1000 points and can both gain and lose points. <br><br>Note that you will only gain or lose points when you choose between the two options.<br><br>[press any key to continue]</div>","32","","","","","","","","","","","",21,2
"html-keyboard-response",12,59021,"0.0-2.0-10.0","8960.79999999702","","<div style='position: fixed; font-size: 18pt; padding: 10px; background-color: white; line-height: 1.5; top: 0; left: 50%; transform: translate(-50%, 0); width: 80%; max-width: 1250px; border-style: solid; border-color: red'>In the experiment you will make decisions about 180 different decks. This should take about 20-30 minutes to complete. <br><br>When you are ready to begin we will try a few example games to make sure that everything makes sense.<br><br>[press any key to continue]</div>","32","","","","","","","","","","","",21,2
"html-keyboard-response",13,69427,"0.0-3.0-0.0-0.0","10405","","<div style='float: left; border-style: solid; border-width: 2px; border-color: white; height: 250px; width: 179px;background-image: url(./img/card1.png); height: 250px; width: 179px;')></div><div style='position: fixed; font-size: 18pt; padding: 10px; background-color: white; line-height: 1.5; top: 0; left: 50%; transform: translate(-50%, 0); width: 80%; max-width: 1250px; border-style: solid; border-color: red'>The words """"New Deck"""" will appear each time there is a new deck with a different average payoff. The task automatically moves on after 1 second.  <br><br>For this practice game, press SPACE BAR to continue.</div><div style='position: fixed; bottom: 0;  left: 0%; width:100%; text-align: right'>Draw number: 0 of 5&nbsp<br>Deck number: 1 of 4&nbsp</div><div style='position: fixed; bottom: 50px; left: 0%; width:100%; font-size: 24pt'>Score: 1000</div>","32",1,"NewDeck",1,"","","","","","","","",21,2
"html-keyboard-response",14,70881,"0.0-3.0-0.0-1.0","1452.699999988079","","<div style='float: left; height: 250px; width: 200px;')></div><div style='float: left; border-style: solid; border-width: 2px; border-color: white; height: 250px; width: 179px;background-image: url(./img/card1.png); height: 250px; width: 179px;')></div><div style='float: left; height: 250px; width: 200px;')></div><div style='position: fixed; font-size: 18pt; padding: 10px; background-color: white; line-height: 1.5; top: 0; left: 50%; transform: translate(-50%, 0); width: 80%; max-width: 1250px; border-style: solid; border-color: red'>Press SPACE BAR to draw one card from the deck ...</div><div style='position: fixed; bottom: 0;  left: 0%; width:100%; text-align: right'>Draw number: 0 of 5&nbsp<br>Deck number: 1 of 4&nbsp</div><div style='position: fixed; bottom: 50px; left: 0%; width:100%; font-size: 24pt'>Score: 1000</div>","32",1,"forced_down",1,-100,-1,"","","","","","",21,2
"html-keyboard-response",15,79404,"0.0-3.0-0.0-2.0","8520.20000000298","","<div style='float: left; height: 250px; width: 200px;')></div><div style='float: left;z-index: 1; display: flex; justify-content: center; align-items: center; height: 250px; width: 179px; border-style: solid; border-style: solid; border-width: 2px; border-color: white; font-size:60px;'><div style='position: absolute; z-index: -1; background-image: url(./img/card2.png); height: 250px; width: 179px; opacity: 0.9;'></div>+100</div><div style='float: left; height: 250px; width: 200px;')></div><div style='position: fixed; bottom: 0;  left: 0%; width:100%; text-align: right'>Draw number: 1 of 5&nbsp<br>Deck number: 1 of 4&nbsp</div><div style='position: fixed; bottom: 50px; left: 0%; width:100%; font-size: 24pt'>Score: 1000</div><div style='position: fixed; font-size: 18pt; padding: 10px; background-color: white; line-height: 1.5; top: 0; left: 50%; transform: translate(-50%, 0); width: 80%; max-width: 1250px; border-style: solid; border-color: red'>This shows the payout from one draw from the deck.<br>Note that this example draw does not contribute to your score.<br><br>  In the experiment this payout disappears after 1 second. During these practice trials press SPACE BAR to move on.</div>","32",1,"forced_outcome",1,100,-1,"./img/card1.png","","","","","",21,2
"html-keyboard-response",16,80709,"0.0-3.0-0.0-3.0","1302.6000000089407","","<div style='float: left; height: 250px; width: 200px;')></div><div style='float: left; border-style: solid; border-width: 2px; border-color: white; height: 250px; width: 179px;background-image: url(./img/card1.png); height: 250px; width: 179px;')></div><div style='float: left; height: 250px; width: 200px;')></div><div style='position: fixed; font-size: 18pt; padding: 10px; background-color: white; line-height: 1.5; top: 0; left: 50%; transform: translate(-50%, 0); width: 80%; max-width: 1250px; border-style: solid; border-color: red'>Press SPACE BAR to draw one card from the deck ...</div><div style='position: fixed; bottom: 0;  left: 0%; width:100%; text-align: right'>Draw number: 1 of 5&nbsp<br>Deck number: 1 of 4&nbsp</div><div style='position: fixed; bottom: 50px; left: 0%; width:100%; font-size: 24pt'>Score: 1000</div>","32",1,"forced_down",1,-100,-1,"","","","","","",21,2
"html-keyboard-response",17,82461,"0.0-3.0-0.0-4.0","1751.2999999970198","","<div style='float: left; height: 250px; width: 200px;')></div><div style='float: left;z-index: 1; display: flex; justify-content: center; align-items: center; height: 250px; width: 179px; border-style: solid; border-style: solid; border-width: 2px; border-color: white; font-size:60px;'><div style='position: absolute; z-index: -1; background-image: url(./img/card2.png); height: 250px; width: 179px; opacity: 0.9;'></div>+70</div><div style='float: left; height: 250px; width: 200px;')></div><div style='position: fixed; bottom: 0;  left: 0%; width:100%; text-align: right'>Draw number: 2 of 5&nbsp<br>Deck number: 1 of 4&nbsp</div><div style='position: fixed; bottom: 50px; left: 0%; width:100%; font-size: 24pt'>Score: 1000</div><div style='position: fixed; font-size: 18pt; padding: 10px; background-color: white; line-height: 1.5; top: 0; left: 50%; transform: translate(-50%, 0); width: 80%; max-width: 1250px; border-style: solid; border-color: red'>This shows the payout from one draw from the deck.<br>Note that this example draw does not contribute to your score.<br><br>  In the experiment this payout disappears after 1 second. During these practice trials press SPACE BAR to move on.</div>","32",1,"forced_outcome",1,70,-1,"./img/card1.png","","","","","",21,2
"html-keyboard-response",18,83671,"0.0-3.0-0.0-5.0","1208.3999999910593","","<div style='float: left; height: 250px; width: 200px;')></div><div style='float: left; border-style: solid; border-width: 2px; border-color: white; height: 250px; width: 179px;background-image: url(./img/card1.png); height: 250px; width: 179px;')></div><div style='float: left; height: 250px; width: 200px;')></div><div style='position: fixed; font-size: 18pt; padding: 10px; background-color: white; line-height: 1.5; top: 0; left: 50%; transform: translate(-50%, 0); width: 80%; max-width: 1250px; border-style: solid; border-color: red'>Press SPACE BAR to draw one card from the deck ...</div><div style='position: fixed; bottom: 0;  left: 0%; width:100%; text-align: right'>Draw number: 2 of 5&nbsp<br>Deck number: 1 of 4&nbsp</div><div style='position: fixed; bottom: 50px; left: 0%; width:100%; font-size: 24pt'>Score: 1000</div>","32",1,"forced_down",1,-100,-1,"","","","","","",21,2
"html-keyboard-response",19,84789,"0.0-3.0-0.0-6.0","1117.2999999970198","","<div style='float: left; height: 250px; width: 200px;')></div><div style='float: left;z-index: 1; display: flex; justify-content: center; align-items: center; height: 250px; width: 179px; border-style: solid; border-style: solid; border-width: 2px; border-color: white; font-size:60px;'><div style='position: absolute; z-index: -1; background-image: url(./img/card2.png); height: 250px; width: 179px; opacity: 0.9;'></div>+700</div><div style='float: left; height: 250px; width: 200px;')></div><div style='position: fixed; bottom: 0;  left: 0%; width:100%; text-align: right'>Draw number: 3 of 5&nbsp<br>Deck number: 1 of 4&nbsp</div><div style='position: fixed; bottom: 50px; left: 0%; width:100%; font-size: 24pt'>Score: 1000</div><div style='position: fixed; font-size: 18pt; padding: 10px; background-color: white; line-height: 1.5; top: 0; left: 50%; transform: translate(-50%, 0); width: 80%; max-width: 1250px; border-style: solid; border-color: red'>This shows the payout from one draw from the deck.<br>Note that this example draw does not contribute to your score.<br><br>  In the experiment this payout disappears after 1 second. During these practice trials press SPACE BAR to move on.</div>","32",1,"forced_outcome",1,700,-1,"./img/card1.png","","","","","",21,2
"html-keyboard-response",20,85745,"0.0-3.0-0.0-7.0","954.5999999940395","","<div style='float: left; height: 250px; width: 200px;')></div><div style='float: left; border-style: solid; border-width: 2px; border-color: white; height: 250px; width: 179px;background-image: url(./img/card1.png); height: 250px; width: 179px;')></div><div style='float: left; height: 250px; width: 200px;')></div><div style='position: fixed; font-size: 18pt; padding: 10px; background-color: white; line-height: 1.5; top: 0; left: 50%; transform: translate(-50%, 0); width: 80%; max-width: 1250px; border-style: solid; border-color: red'>Press SPACE BAR to draw one card from the deck ...</div><div style='position: fixed; bottom: 0;  left: 0%; width:100%; text-align: right'>Draw number: 3 of 5&nbsp<br>Deck number: 1 of 4&nbsp</div><div style='position: fixed; bottom: 50px; left: 0%; width:100%; font-size: 24pt'>Score: 1000</div>","32",1,"forced_down",1,-100,-1,"","","","","","",21,2
"html-keyboard-response",21,86613,"0.0-3.0-0.0-8.0","866.1000000089407","","<div style='float: left; height: 250px; width: 200px;')></div><div style='float: left;z-index: 1; display: flex; justify-content: center; align-items: center; height: 250px; width: 179px; border-style: solid; border-style: solid; border-width: 2px; border-color: white; font-size:60px;'><div style='position: absolute; z-index: -1; background-image: url(./img/card2.png); height: 250px; width: 179px; opacity: 0.9;'></div>+110</div><div style='float: left; height: 250px; width: 200px;')></div><div style='position: fixed; bottom: 0;  left: 0%; width:100%; text-align: right'>Draw number: 4 of 5&nbsp<br>Deck number: 1 of 4&nbsp</div><div style='position: fixed; bottom: 50px; left: 0%; width:100%; font-size: 24pt'>Score: 1000</div><div style='position: fixed; font-size: 18pt; padding: 10px; background-color: white; line-height: 1.5; top: 0; left: 50%; transform: translate(-50%, 0); width: 80%; max-width: 1250px; border-style: solid; border-color: red'>This shows the payout from one draw from the deck.<br>Note that this example draw does not contribute to your score.<br><br>  In the experiment this payout disappears after 1 second. During these practice trials press SPACE BAR to move on.</div>","32",1,"forced_outcome",1,110,-1,"./img/card1.png","","","","","",21,2
"html-keyboard-response",22,87368,"0.0-3.0-0.0-9.0","754.7000000029802","","<div style='float: left; height: 250px; width: 200px;')></div><div style='float: left; border-style: solid; border-width: 2px; border-color: white; height: 250px; width: 179px;background-image: url(./img/card1.png); height: 250px; width: 179px;')></div><div style='float: left; height: 250px; width: 200px;')></div><div style='position: fixed; font-size: 18pt; padding: 10px; background-color: white; line-height: 1.5; top: 0; left: 50%; transform: translate(-50%, 0); width: 80%; max-width: 1250px; border-style: solid; border-color: red'>Press SPACE BAR to draw one card from the deck ...</div><div style='position: fixed; bottom: 0;  left: 0%; width:100%; text-align: right'>Draw number: 4 of 5&nbsp<br>Deck number: 1 of 4&nbsp</div><div style='position: fixed; bottom: 50px; left: 0%; width:100%; font-size: 24pt'>Score: 1000</div>","32",1,"forced_down",1,-100,-1,"","","","","","",21,2
"html-keyboard-response",23,88054,"0.0-3.0-0.0-10.0","684.3000000119209","","<div style='float: left; height: 250px; width: 200px;')></div><div style='float: left;z-index: 1; display: flex; justify-content: center; align-items: center; height: 250px; width: 179px; border-style: solid; border-style: solid; border-width: 2px; border-color: white; font-size:60px;'><div style='position: absolute; z-index: -1; background-image: url(./img/card2.png); height: 250px; width: 179px; opacity: 0.9;'></div>+90</div><div style='float: left; height: 250px; width: 200px;')></div><div style='position: fixed; bottom: 0;  left: 0%; width:100%; text-align: right'>Draw number: 5 of 5&nbsp<br>Deck number: 1 of 4&nbsp</div><div style='position: fixed; bottom: 50px; left: 0%; width:100%; font-size: 24pt'>Score: 1000</div><div style='position: fixed; font-size: 18pt; padding: 10px; background-color: white; line-height: 1.5; top: 0; left: 50%; transform: translate(-50%, 0); width: 80%; max-width: 1250px; border-style: solid; border-color: red'>This shows the payout from one draw from the deck.<br>Note that this example draw does not contribute to your score.<br><br>  In the experiment this payout disappears after 1 second. During these practice trials press SPACE BAR to move on.</div>","32",1,"forced_outcome",1,90,-1,"./img/card1.png","","","","","",21,2
"html-keyboard-response",24,93427,"0.0-3.0-0.0-11.0","5370.29999999702","","<div style='float: left; display: flex; justify-content: center; align-items: center; height: 250px; width: 179px; border-style: solid; border-width: 2px; border-color: white; font-size:60px; color:grey; background-color: lightgrey;'')>+100</div><div style='float: left; height: 250px; width: 200px;')></div><div style='float: left; border-style: solid; border-width: 2px; border-color: white; height: 250px; width: 179px;background-image: url(./img/card1.png); height: 250px; width: 179px;')></div><div style='position: fixed; font-size: 18pt; padding: 10px; background-color: white; line-height: 1.5; top: 0; left: 50%; transform: translate(-50%, 0); width: 80%; max-width: 1250px; border-style: solid; border-color: red'>Now you have a choice.  Do you want to draw another card from the deck and get a random payout (which will be similar to the example draws you just made), or do you want a known offer for sure? <br><br>Note that the payout your receive from this choice contributes to your score. <br><br>Press F or J to choose left or right</div><div style='position: fixed; bottom: 0;  left: 0%; width:100%; text-align: right'>Choice&nbsp<br>Deck number: 1 of 4&nbsp</div><div style='position: fixed; bottom: 50px; left: 0%; width:100%; font-size: 24pt'>Score: 1000</div>","74",1,"choice_down",1,-1,0,"./img/card1.png",-1,-1,TRUE,100,"",21,2
"html-keyboard-response",25,99298,"0.0-3.0-0.0-12.0","5869.4000000059605","","<div style='float: left; display: flex; justify-content: center; align-items: center; height: 250px; width: 179px; border-style: solid; border-width: 2px; border-color: white; font-size:60px; color:grey; background-color: lightgrey;'')>+100</div><div style='float: left; height: 250px; width: 200px;')></div><div style='float: left;z-index: 1; display: flex; justify-content: center; align-items: center; height: 250px; width: 179px; border-style: solid; border-style: solid; border-width: 2px; border-color: white; font-size:60px;'><div style='position: absolute; z-index: -1; background-image: url(./img/card2.png); height: 250px; width: 179px; opacity: 0.9;'></div>+80</div><div style='position: fixed; font-size: 18pt; padding: 10px; background-color: white; line-height: 1.5; top: 0; left: 50%; transform: translate(-50%, 0); width: 80%; max-width: 1250px; border-style: solid; border-color: red'>You chose another draw from the deck and earned 80 points. In the experiment this outcome will show for 1 second.  In this practice game please press SPACE BAR to continue.</div><div style='position: fixed; bottom: 0;  left: 0%; width:100%; text-align: right'>Choice&nbsp<br>Deck number: 1 of 4&nbsp</div><div style='position: fixed; bottom: 50px; left: 0%; width:100%; font-size: 24pt'>Score: 1080</div>","32",1,"choice_outcome",1,-1,0,"./img/card2.png","","","","",80,21,2
"html-keyboard-response",26,108619,"0.0-3.0-0.1-0.1","9318.79999999702","","<div style='float: left; border-style: solid; border-width: 2px; border-color: white; height: 250px; width: 179px;background-image: url(./img/card1.png); height: 250px; width: 179px;')></div><div style='position: fixed; font-size: 18pt; padding: 10px; background-color: white; line-height: 1.5; top: 0; left: 50%; transform: translate(-50%, 0); width: 80%; max-width: 1250px; border-style: solid; border-color: red'>The words """"New Deck"""" will appear each time there is a new deck with a different average payoff. The task automatically moves on after 1 second.  <br><br>For this practice game, press SPACE BAR to continue.</div><div style='position: fixed; bottom: 0;  left: 0%; width:100%; text-align: right'>Draw number: 0 of 5&nbsp<br>Deck number: 2 of 4&nbsp</div><div style='position: fixed; bottom: 50px; left: 0%; width:100%; font-size: 24pt'>Score: 1080</div>","32",1,"NewDeck",2,"","","","","","","","",21,2
"html-keyboard-response",27,111263,"0.0-3.0-0.1-1.1","2643","","<div style='float: left; height: 250px; width: 200px;')></div><div style='float: left; border-style: solid; border-width: 2px; border-color: white; height: 250px; width: 179px;background-image: url(./img/card1.png); height: 250px; width: 179px;')></div><div style='float: left; height: 250px; width: 200px;')></div><div style='position: fixed; font-size: 18pt; padding: 10px; background-color: white; line-height: 1.5; top: 0; left: 50%; transform: translate(-50%, 0); width: 80%; max-width: 1250px; border-style: solid; border-color: red'>Press SPACE BAR to draw one card from the deck ...</div><div style='position: fixed; bottom: 0;  left: 0%; width:100%; text-align: right'>Draw number: 0 of 5&nbsp<br>Deck number: 2 of 4&nbsp</div><div style='position: fixed; bottom: 50px; left: 0%; width:100%; font-size: 24pt'>Score: 1080</div>","32",1,"forced_down",2,-100,-1,"","","","","","",21,2
"html-keyboard-response",28,112535,"0.0-3.0-0.1-2.1","1270","","<div style='float: left; height: 250px; width: 200px;')></div><div style='float: left;z-index: 1; display: flex; justify-content: center; align-items: center; height: 250px; width: 179px; border-style: solid; border-style: solid; border-width: 2px; border-color: white; font-size:60px;'><div style='position: absolute; z-index: -1; background-image: url(./img/card2.png); height: 250px; width: 179px; opacity: 0.9;'></div>+60</div><div style='float: left; height: 250px; width: 200px;')></div><div style='position: fixed; bottom: 0;  left: 0%; width:100%; text-align: right'>Draw number: 1 of 5&nbsp<br>Deck number: 2 of 4&nbsp</div><div style='position: fixed; bottom: 50px; left: 0%; width:100%; font-size: 24pt'>Score: 1080</div><div style='position: fixed; font-size: 18pt; padding: 10px; background-color: white; line-height: 1.5; top: 0; left: 50%; transform: translate(-50%, 0); width: 80%; max-width: 1250px; border-style: solid; border-color: red'>This shows the payout from one draw from the deck.<br>Note that this example draw does not contribute to your score.<br><br>  In the experiment this payout disappears after 1 second. During these practice trials press SPACE BAR to move on.</div>","32",1,"forced_outcome",2,60,-1,"./img/card1.png","","","","","",21,2
"html-keyboard-response",29,113164,"0.0-3.0-0.1-3.1","628.1000000089407","","<div style='float: left; height: 250px; width: 200px;')></div><div style='float: left; border-style: solid; border-width: 2px; border-color: white; height: 250px; width: 179px;background-image: url(./img/card1.png); height: 250px; width: 179px;')></div><div style='float: left; height: 250px; width: 200px;')></div><div style='position: fixed; font-size: 18pt; padding: 10px; background-color: white; line-height: 1.5; top: 0; left: 50%; transform: translate(-50%, 0); width: 80%; max-width: 1250px; border-style: solid; border-color: red'>Press SPACE BAR to draw one card from the deck ...</div><div style='position: fixed; bottom: 0;  left: 0%; width:100%; text-align: right'>Draw number: 1 of 5&nbsp<br>Deck number: 2 of 4&nbsp</div><div style='position: fixed; bottom: 50px; left: 0%; width:100%; font-size: 24pt'>Score: 1080</div>","32",1,"forced_down",2,-100,-1,"","","","","","",21,2
"html-keyboard-response",30,113601,"0.0-3.0-0.1-4.1","435.3999999910593","","<div style='float: left; height: 250px; width: 200px;')></div><div style='float: left;z-index: 1; display: flex; justify-content: center; align-items: center; height: 250px; width: 179px; border-style: solid; border-style: solid; border-width: 2px; border-color: white; font-size:60px;'><div style='position: absolute; z-index: -1; background-image: url(./img/card2.png); height: 250px; width: 179px; opacity: 0.9;'></div>+80</div><div style='float: left; height: 250px; width: 200px;')></div><div style='position: fixed; bottom: 0;  left: 0%; width:100%; text-align: right'>Draw number: 2 of 5&nbsp<br>Deck number: 2 of 4&nbsp</div><div style='position: fixed; bottom: 50px; left: 0%; width:100%; font-size: 24pt'>Score: 1080</div><div style='position: fixed; font-size: 18pt; padding: 10px; background-color: white; line-height: 1.5; top: 0; left: 50%; transform: translate(-50%, 0); width: 80%; max-width: 1250px; border-style: solid; border-color: red'>This shows the payout from one draw from the deck.<br>Note that this example draw does not contribute to your score.<br><br>  In the experiment this payout disappears after 1 second. During these practice trials press SPACE BAR to move on.</div>","32",1,"forced_outcome",2,80,-1,"./img/card1.png","","","","","",21,2
"html-keyboard-response",31,114024,"0.0-3.0-0.1-5.1","421.70000000298023","","<div style='float: left; height: 250px; width: 200px;')></div><div style='float: left; border-style: solid; border-width: 2px; border-color: white; height: 250px; width: 179px;background-image: url(./img/card1.png); height: 250px; width: 179px;')></div><div style='float: left; height: 250px; width: 200px;')></div><div style='position: fixed; font-size: 18pt; padding: 10px; background-color: white; line-height: 1.5; top: 0; left: 50%; transform: translate(-50%, 0); width: 80%; max-width: 1250px; border-style: solid; border-color: red'>Press SPACE BAR to draw one card from the deck ...</div><div style='position: fixed; bottom: 0;  left: 0%; width:100%; text-align: right'>Draw number: 2 of 5&nbsp<br>Deck number: 2 of 4&nbsp</div><div style='position: fixed; bottom: 50px; left: 0%; width:100%; font-size: 24pt'>Score: 1080</div>","32",1,"forced_down",2,-100,-1,"","","","","","",21,2
"html-keyboard-response",32,114470,"0.0-3.0-0.1-6.1","444.29999999701977","","<div style='float: left; height: 250px; width: 200px;')></div><div style='float: left;z-index: 1; display: flex; justify-content: center; align-items: center; height: 250px; width: 179px; border-style: solid; border-style: solid; border-width: 2px; border-color: white; font-size:60px;'><div style='position: absolute; z-index: -1; background-image: url(./img/card2.png); height: 250px; width: 179px; opacity: 0.9;'></div>+60</div><div style='float: left; height: 250px; width: 200px;')></div><div style='position: fixed; bottom: 0;  left: 0%; width:100%; text-align: right'>Draw number: 3 of 5&nbsp<br>Deck number: 2 of 4&nbsp</div><div style='position: fixed; bottom: 50px; left: 0%; width:100%; font-size: 24pt'>Score: 1080</div><div style='position: fixed; font-size: 18pt; padding: 10px; background-color: white; line-height: 1.5; top: 0; left: 50%; transform: translate(-50%, 0); width: 80%; max-width: 1250px; border-style: solid; border-color: red'>This shows the payout from one draw from the deck.<br>Note that this example draw does not contribute to your score.<br><br>  In the experiment this payout disappears after 1 second. During these practice trials press SPACE BAR to move on.</div>","32",1,"forced_outcome",2,60,-1,"./img/card1.png","","","","","",21,2
"html-keyboard-response",33,114949,"0.0-3.0-0.1-7.1","478","","<div style='float: left; height: 250px; width: 200px;')></div><div style='float: left; border-style: solid; border-width: 2px; border-color: white; height: 250px; width: 179px;background-image: url(./img/card1.png); height: 250px; width: 179px;')></div><div style='float: left; height: 250px; width: 200px;')></div><div style='position: fixed; font-size: 18pt; padding: 10px; background-color: white; line-height: 1.5; top: 0; left: 50%; transform: translate(-50%, 0); width: 80%; max-width: 1250px; border-style: solid; border-color: red'>Press SPACE BAR to draw one card from the deck ...</div><div style='position: fixed; bottom: 0;  left: 0%; width:100%; text-align: right'>Draw number: 3 of 5&nbsp<br>Deck number: 2 of 4&nbsp</div><div style='position: fixed; bottom: 50px; left: 0%; width:100%; font-size: 24pt'>Score: 1080</div>","32",1,"forced_down",2,-100,-1,"","","","","","",21,2
"html-keyboard-response",34,115430,"0.0-3.0-0.1-8.1","478.90000000596046","","<div style='float: left; height: 250px; width: 200px;')></div><div style='float: left;z-index: 1; display: flex; justify-content: center; align-items: center; height: 250px; width: 179px; border-style: solid; border-style: solid; border-width: 2px; border-color: white; font-size:60px;'><div style='position: absolute; z-index: -1; background-image: url(./img/card2.png); height: 250px; width: 179px; opacity: 0.9;'></div>+70</div><div style='float: left; height: 250px; width: 200px;')></div><div style='position: fixed; bottom: 0;  left: 0%; width:100%; text-align: right'>Draw number: 4 of 5&nbsp<br>Deck number: 2 of 4&nbsp</div><div style='position: fixed; bottom: 50px; left: 0%; width:100%; font-size: 24pt'>Score: 1080</div><div style='position: fixed; font-size: 18pt; padding: 10px; background-color: white; line-height: 1.5; top: 0; left: 50%; transform: translate(-50%, 0); width: 80%; max-width: 1250px; border-style: solid; border-color: red'>This shows the payout from one draw from the deck.<br>Note that this example draw does not contribute to your score.<br><br>  In the experiment this payout disappears after 1 second. During these practice trials press SPACE BAR to move on.</div>","32",1,"forced_outcome",2,70,-1,"./img/card1.png","","","","","",21,2
"html-keyboard-response",35,115934,"0.0-3.0-0.1-9.1","502.69999998807907","","<div style='float: left; height: 250px; width: 200px;')></div><div style='float: left; border-style: solid; border-width: 2px; border-color: white; height: 250px; width: 179px;background-image: url(./img/card1.png); height: 250px; width: 179px;')></div><div style='float: left; height: 250px; width: 200px;')></div><div style='position: fixed; font-size: 18pt; padding: 10px; background-color: white; line-height: 1.5; top: 0; left: 50%; transform: translate(-50%, 0); width: 80%; max-width: 1250px; border-style: solid; border-color: red'>Press SPACE BAR to draw one card from the deck ...</div><div style='position: fixed; bottom: 0;  left: 0%; width:100%; text-align: right'>Draw number: 4 of 5&nbsp<br>Deck number: 2 of 4&nbsp</div><div style='position: fixed; bottom: 50px; left: 0%; width:100%; font-size: 24pt'>Score: 1080</div>","32",1,"forced_down",2,-100,-1,"","","","","","",21,2
"html-keyboard-response",36,116423,"0.0-3.0-0.1-10.1","487.59999999403954","","<div style='float: left; height: 250px; width: 200px;')></div><div style='float: left;z-index: 1; display: flex; justify-content: center; align-items: center; height: 250px; width: 179px; border-style: solid; border-style: solid; border-width: 2px; border-color: white; font-size:60px;'><div style='position: absolute; z-index: -1; background-image: url(./img/card2.png); height: 250px; width: 179px; opacity: 0.9;'></div>+60</div><div style='float: left; height: 250px; width: 200px;')></div><div style='position: fixed; bottom: 0;  left: 0%; width:100%; text-align: right'>Draw number: 5 of 5&nbsp<br>Deck number: 2 of 4&nbsp</div><div style='position: fixed; bottom: 50px; left: 0%; width:100%; font-size: 24pt'>Score: 1080</div><div style='position: fixed; font-size: 18pt; padding: 10px; background-color: white; line-height: 1.5; top: 0; left: 50%; transform: translate(-50%, 0); width: 80%; max-width: 1250px; border-style: solid; border-color: red'>This shows the payout from one draw from the deck.<br>Note that this example draw does not contribute to your score.<br><br>  In the experiment this payout disappears after 1 second. During these practice trials press SPACE BAR to move on.</div>","32",1,"forced_outcome",2,60,-1,"./img/card1.png","","","","","",21,2
"html-keyboard-response",37,120068,"0.0-3.0-0.1-11.1","3644.0999999940395","","<div style='float: left; border-style: solid; border-width: 2px; border-color: white; height: 250px; width: 179px;background-image: url(./img/card1.png); height: 250px; width: 179px;')></div><div style='float: left; height: 250px; width: 200px;')></div><div style='float: left; display: flex; justify-content: center; align-items: center; height: 250px; width: 179px; border-style: solid; border-width: 2px; border-color: white; font-size:60px; color:grey; background-color: lightgrey;'')>+60</div><div style='position: fixed; font-size: 18pt; padding: 10px; background-color: white; line-height: 1.5; top: 0; left: 50%; transform: translate(-50%, 0); width: 80%; max-width: 1250px; border-style: solid; border-color: red'>Now you have a choice.  Do you want to draw another card from the deck and get a random payout (which will be similar to the example draws you just made), or do you want a known offer for sure? <br><br>Note that the payout your receive from this choice contributes to your score. <br><br>Press F or J to choose left or right</div><div style='position: fixed; bottom: 0;  left: 0%; width:100%; text-align: right'>Choice&nbsp<br>Deck number: 2 of 4&nbsp</div><div style='position: fixed; bottom: 50px; left: 0%; width:100%; font-size: 24pt'>Score: 1080</div>","74",1,"choice_down",2,-1,1,"./img/card1.png",-1,-1,FALSE,60,"",21,2
"html-keyboard-response",38,123128,"0.0-3.0-0.1-12.1","3058.5","","<div style='float: left; border-style: solid; border-width: 2px; border-color: white; height: 250px; width: 179px;background-image: url(./img/card1.png); height: 250px; width: 179px;')></div><div style='float: left; height: 250px; width: 200px;')></div><div style='float: left; display: flex; justify-content: center; align-items: center; height: 250px; width: 179px; border-style: solid; border-width: 2px; border-color: black; font-size:60px;'')>+60</div><div style='position: fixed; font-size: 18pt; padding: 10px; background-color: white; line-height: 1.5; top: 0; left: 50%; transform: translate(-50%, 0); width: 80%; max-width: 1250px; border-style: solid; border-color: red'>You chose the known outcome and earned 60 points. In the experiment this outcome will show for 1 second.  In this practice game please press SPACE BAR to continue.</div><div style='position: fixed; bottom: 0;  left: 0%; width:100%; text-align: right'>Choice&nbsp<br>Deck number: 2 of 4&nbsp</div><div style='position: fixed; bottom: 50px; left: 0%; width:100%; font-size: 24pt'>Score: 1140</div>","32",1,"choice_outcome",2,-1,1,"./img/card1.png","","","","",60,21,2
"html-keyboard-response",39,124415,"0.0-3.0-0.2-0.2","1285.5999999940395","","<div style='float: left; border-style: solid; border-width: 2px; border-color: white; height: 250px; width: 179px;background-image: url(./img/card1.png); height: 250px; width: 179px;')></div><div style='position: fixed; font-size: 18pt; padding: 10px; background-color: white; line-height: 1.5; top: 0; left: 50%; transform: translate(-50%, 0); width: 80%; max-width: 1250px; border-style: solid; border-color: red'>The words """"New Deck"""" will appear each time there is a new deck with a different average payoff. The task automatically moves on after 1 second.  <br><br>For this practice game, press SPACE BAR to continue.</div><div style='position: fixed; bottom: 0;  left: 0%; width:100%; text-align: right'>Draw number: 0 of 5&nbsp<br>Deck number: 3 of 4&nbsp</div><div style='position: fixed; bottom: 50px; left: 0%; width:100%; font-size: 24pt'>Score: 1140</div>","32",1,"NewDeck",3,"","","","","","","","",21,2
"html-keyboard-response",40,125304,"0.0-3.0-0.2-1.2","888.0999999940395","","<div style='float: left; height: 250px; width: 200px;')></div><div style='float: left; border-style: solid; border-width: 2px; border-color: white; height: 250px; width: 179px;background-image: url(./img/card1.png); height: 250px; width: 179px;')></div><div style='float: left; height: 250px; width: 200px;')></div><div style='position: fixed; font-size: 18pt; padding: 10px; background-color: white; line-height: 1.5; top: 0; left: 50%; transform: translate(-50%, 0); width: 80%; max-width: 1250px; border-style: solid; border-color: red'>Press SPACE BAR to draw one card from the deck ...</div><div style='position: fixed; bottom: 0;  left: 0%; width:100%; text-align: right'>Draw number: 0 of 5&nbsp<br>Deck number: 3 of 4&nbsp</div><div style='position: fixed; bottom: 50px; left: 0%; width:100%; font-size: 24pt'>Score: 1140</div>","32",1,"forced_down",3,-100,-1,"","","","","","",21,2
"html-keyboard-response",41,127136,"0.0-3.0-0.2-2.2","1830.7000000029802","","<div style='float: left; height: 250px; width: 200px;')></div><div style='float: left;z-index: 1; display: flex; justify-content: center; align-items: center; height: 250px; width: 179px; border-style: solid; border-width: 2px; border-color: white; font-size:60px;'><div style='position: absolute; z-index: -1; background-image: url(./img/card2.png); height: 250px; width: 179px; opacity: 0.9;'></div>-50</div><div style='float: left; height: 250px; width: 200px;')></div><div style='position: fixed; bottom: 0;  left: 0%; width:100%; text-align: right'>Draw number: 1 of 5&nbsp<br>Deck number: 3 of 4&nbsp</div><div style='position: fixed; bottom: 50px; left: 0%; width:100%; font-size: 24pt'>Score: 1140</div><div style='position: fixed; font-size: 18pt; padding: 10px; background-color: white; line-height: 1.5; top: 0; left: 50%; transform: translate(-50%, 0); width: 80%; max-width: 1250px; border-style: solid; border-color: red'>This shows the payout from one draw from the deck.<br>Note that this example draw does not contribute to your score.<br><br>  In the experiment this payout disappears after 1 second. During these practice trials press SPACE BAR to move on.</div>","32",1,"forced_outcome",3,-50,-1,"./img/card1.png","","","","","",21,2
"html-keyboard-response",42,127516,"0.0-3.0-0.2-3.2","378.90000000596046","","<div style='float: left; height: 250px; width: 200px;')></div><div style='float: left; border-style: solid; border-width: 2px; border-color: white; height: 250px; width: 179px;background-image: url(./img/card1.png); height: 250px; width: 179px;')></div><div style='float: left; height: 250px; width: 200px;')></div><div style='position: fixed; font-size: 18pt; padding: 10px; background-color: white; line-height: 1.5; top: 0; left: 50%; transform: translate(-50%, 0); width: 80%; max-width: 1250px; border-style: solid; border-color: red'>Press SPACE BAR to draw one card from the deck ...</div><div style='position: fixed; bottom: 0;  left: 0%; width:100%; text-align: right'>Draw number: 1 of 5&nbsp<br>Deck number: 3 of 4&nbsp</div><div style='position: fixed; bottom: 50px; left: 0%; width:100%; font-size: 24pt'>Score: 1140</div>","32",1,"forced_down",3,-100,-1,"","","","","","",21,2
"html-keyboard-response",43,127867,"0.0-3.0-0.2-4.2","349.90000000596046","","<div style='float: left; height: 250px; width: 200px;')></div><div style='float: left;z-index: 1; display: flex; justify-content: center; align-items: center; height: 250px; width: 179px; border-style: solid; border-width: 2px; border-color: white; font-size:60px;'><div style='position: absolute; z-index: -1; background-image: url(./img/card2.png); height: 250px; width: 179px; opacity: 0.9;'></div>-70</div><div style='float: left; height: 250px; width: 200px;')></div><div style='position: fixed; bottom: 0;  left: 0%; width:100%; text-align: right'>Draw number: 2 of 5&nbsp<br>Deck number: 3 of 4&nbsp</div><div style='position: fixed; bottom: 50px; left: 0%; width:100%; font-size: 24pt'>Score: 1140</div><div style='position: fixed; font-size: 18pt; padding: 10px; background-color: white; line-height: 1.5; top: 0; left: 50%; transform: translate(-50%, 0); width: 80%; max-width: 1250px; border-style: solid; border-color: red'>This shows the payout from one draw from the deck.<br>Note that this example draw does not contribute to your score.<br><br>  In the experiment this payout disappears after 1 second. During these practice trials press SPACE BAR to move on.</div>","32",1,"forced_outcome",3,-70,-1,"./img/card1.png","","","","","",21,2
"html-keyboard-response",44,128185,"0.0-3.0-0.2-5.2","316.40000000596046","","<div style='float: left; height: 250px; width: 200px;')></div><div style='float: left; border-style: solid; border-width: 2px; border-color: white; height: 250px; width: 179px;background-image: url(./img/card1.png); height: 250px; width: 179px;')></div><div style='float: left; height: 250px; width: 200px;')></div><div style='position: fixed; font-size: 18pt; padding: 10px; background-color: white; line-height: 1.5; top: 0; left: 50%; transform: translate(-50%, 0); width: 80%; max-width: 1250px; border-style: solid; border-color: red'>Press SPACE BAR to draw one card from the deck ...</div><div style='position: fixed; bottom: 0;  left: 0%; width:100%; text-align: right'>Draw number: 2 of 5&nbsp<br>Deck number: 3 of 4&nbsp</div><div style='position: fixed; bottom: 50px; left: 0%; width:100%; font-size: 24pt'>Score: 1140</div>","32",1,"forced_down",3,-100,-1,"","","","","","",21,2
"html-keyboard-response",45,128520,"0.0-3.0-0.2-6.2","333.30000001192093","","<div style='float: left; height: 250px; width: 200px;')></div><div style='float: left;z-index: 1; display: flex; justify-content: center; align-items: center; height: 250px; width: 179px; border-style: solid; border-width: 2px; border-color: white; font-size:60px;'><div style='position: absolute; z-index: -1; background-image: url(./img/card2.png); height: 250px; width: 179px; opacity: 0.9;'></div>-10</div><div style='float: left; height: 250px; width: 200px;')></div><div style='position: fixed; bottom: 0;  left: 0%; width:100%; text-align: right'>Draw number: 3 of 5&nbsp<br>Deck number: 3 of 4&nbsp</div><div style='position: fixed; bottom: 50px; left: 0%; width:100%; font-size: 24pt'>Score: 1140</div><div style='position: fixed; font-size: 18pt; padding: 10px; background-color: white; line-height: 1.5; top: 0; left: 50%; transform: translate(-50%, 0); width: 80%; max-width: 1250px; border-style: solid; border-color: red'>This shows the payout from one draw from the deck.<br>Note that this example draw does not contribute to your score.<br><br>  In the experiment this payout disappears after 1 second. During these practice trials press SPACE BAR to move on.</div>","32",1,"forced_outcome",3,-10,-1,"./img/card1.png","","","","","",21,2
"html-keyboard-response",46,128839,"0.0-3.0-0.2-7.2","318.3999999910593","","<div style='float: left; height: 250px; width: 200px;')></div><div style='float: left; border-style: solid; border-width: 2px; border-color: white; height: 250px; width: 179px;background-image: url(./img/card1.png); height: 250px; width: 179px;')></div><div style='float: left; height: 250px; width: 200px;')></div><div style='position: fixed; font-size: 18pt; padding: 10px; background-color: white; line-height: 1.5; top: 0; left: 50%; transform: translate(-50%, 0); width: 80%; max-width: 1250px; border-style: solid; border-color: red'>Press SPACE BAR to draw one card from the deck ...</div><div style='position: fixed; bottom: 0;  left: 0%; width:100%; text-align: right'>Draw number: 3 of 5&nbsp<br>Deck number: 3 of 4&nbsp</div><div style='position: fixed; bottom: 50px; left: 0%; width:100%; font-size: 24pt'>Score: 1140</div>","32",1,"forced_down",3,-100,-1,"","","","","","",21,2
"html-keyboard-response",47,129178,"0.0-3.0-0.2-8.2","337.29999999701977","","<div style='float: left; height: 250px; width: 200px;')></div><div style='float: left;z-index: 1; display: flex; justify-content: center; align-items: center; height: 250px; width: 179px; border-style: solid; border-width: 2px; border-color: white; font-size:60px;'><div style='position: absolute; z-index: -1; background-image: url(./img/card2.png); height: 250px; width: 179px; opacity: 0.9;'></div>-60</div><div style='float: left; height: 250px; width: 200px;')></div><div style='position: fixed; bottom: 0;  left: 0%; width:100%; text-align: right'>Draw number: 4 of 5&nbsp<br>Deck number: 3 of 4&nbsp</div><div style='position: fixed; bottom: 50px; left: 0%; width:100%; font-size: 24pt'>Score: 1140</div><div style='position: fixed; font-size: 18pt; padding: 10px; background-color: white; line-height: 1.5; top: 0; left: 50%; transform: translate(-50%, 0); width: 80%; max-width: 1250px; border-style: solid; border-color: red'>This shows the payout from one draw from the deck.<br>Note that this example draw does not contribute to your score.<br><br>  In the experiment this payout disappears after 1 second. During these practice trials press SPACE BAR to move on.</div>","32",1,"forced_outcome",3,-60,-1,"./img/card1.png","","","","","",21,2
"html-keyboard-response",48,129527,"0.0-3.0-0.2-9.2","348.20000000298023","","<div style='float: left; height: 250px; width: 200px;')></div><div style='float: left; border-style: solid; border-width: 2px; border-color: white; height: 250px; width: 179px;background-image: url(./img/card1.png); height: 250px; width: 179px;')></div><div style='float: left; height: 250px; width: 200px;')></div><div style='position: fixed; font-size: 18pt; padding: 10px; background-color: white; line-height: 1.5; top: 0; left: 50%; transform: translate(-50%, 0); width: 80%; max-width: 1250px; border-style: solid; border-color: red'>Press SPACE BAR to draw one card from the deck ...</div><div style='position: fixed; bottom: 0;  left: 0%; width:100%; text-align: right'>Draw number: 4 of 5&nbsp<br>Deck number: 3 of 4&nbsp</div><div style='position: fixed; bottom: 50px; left: 0%; width:100%; font-size: 24pt'>Score: 1140</div>","32",1,"forced_down",3,-100,-1,"","","","","","",21,2
"html-keyboard-response",49,130034,"0.0-3.0-0.2-10.2","506.20000000298023","","<div style='float: left; height: 250px; width: 200px;')></div><div style='float: left;z-index: 1; display: flex; justify-content: center; align-items: center; height: 250px; width: 179px; border-style: solid; border-width: 2px; border-color: white; font-size:60px;'><div style='position: absolute; z-index: -1; background-image: url(./img/card2.png); height: 250px; width: 179px; opacity: 0.9;'></div>-530</div><div style='float: left; height: 250px; width: 200px;')></div><div style='position: fixed; bottom: 0;  left: 0%; width:100%; text-align: right'>Draw number: 5 of 5&nbsp<br>Deck number: 3 of 4&nbsp</div><div style='position: fixed; bottom: 50px; left: 0%; width:100%; font-size: 24pt'>Score: 1140</div><div style='position: fixed; font-size: 18pt; padding: 10px; background-color: white; line-height: 1.5; top: 0; left: 50%; transform: translate(-50%, 0); width: 80%; max-width: 1250px; border-style: solid; border-color: red'>This shows the payout from one draw from the deck.<br>Note that this example draw does not contribute to your score.<br><br>  In the experiment this payout disappears after 1 second. During these practice trials press SPACE BAR to move on.</div>","32",1,"forced_outcome",3,-530,-1,"./img/card1.png","","","","","",21,2
"html-keyboard-response",50,132719,"0.0-3.0-0.2-11.2","2683.1000000089407","","<div style='float: left; border-style: solid; border-width: 2px; border-color: white; height: 250px; width: 179px;background-image: url(./img/card1.png); height: 250px; width: 179px;')></div><div style='float: left; height: 250px; width: 200px;')></div><div style='float: left; display: flex; justify-content: center; align-items: center; height: 250px; width: 179px; border-style: solid; border-width: 2px; border-color: white; font-size:60px; color:grey; background-color: lightgrey;'')>-90</div><div style='position: fixed; font-size: 18pt; padding: 10px; background-color: white; line-height: 1.5; top: 0; left: 50%; transform: translate(-50%, 0); width: 80%; max-width: 1250px; border-style: solid; border-color: red'>Now you have a choice.  Do you want to draw another card from the deck and get a random payout (which will be similar to the example draws you just made), or do you want a known offer for sure? <br><br>Note that the payout your receive from this choice contributes to your score. <br><br>Press F or J to choose left or right</div><div style='position: fixed; bottom: 0;  left: 0%; width:100%; text-align: right'>Choice&nbsp<br>Deck number: 3 of 4&nbsp</div><div style='position: fixed; bottom: 50px; left: 0%; width:100%; font-size: 24pt'>Score: 1140</div>","70",1,"choice_down",3,-1,1,"./img/card1.png",-1,-1,TRUE,-90,"",21,2
"html-keyboard-response",51,134270,"0.0-3.0-0.2-12.2","1549.9000000059605","","<div style='float: left;z-index: 1; display: flex; justify-content: center; align-items: center; height: 250px; width: 179px; border-style: solid; border-width: 2px; border-color: white; font-size:60px;'><div style='position: absolute; z-index: -1; background-image: url(./img/card2.png); height: 250px; width: 179px; opacity: 0.9;'></div>-60</div><div style='float: left; height: 250px; width: 200px;')></div><div style='float: left; display: flex; justify-content: center; align-items: center; height: 250px; width: 179px; border-style: solid; border-width: 2px; border-color: white; font-size:60px; color:grey; background-color: lightgrey;'')>-90</div><div style='position: fixed; font-size: 18pt; padding: 10px; background-color: white; line-height: 1.5; top: 0; left: 50%; transform: translate(-50%, 0); width: 80%; max-width: 1250px; border-style: solid; border-color: red'>You chose another draw from the deck and earned -60 points. In the experiment this outcome will show for 1 second.  In this practice game please press SPACE BAR to continue.</div><div style='position: fixed; bottom: 0;  left: 0%; width:100%; text-align: right'>Choice&nbsp<br>Deck number: 3 of 4&nbsp</div><div style='position: fixed; bottom: 50px; left: 0%; width:100%; font-size: 24pt'>Score: 1080</div>","32",1,"choice_outcome",3,-1,1,"./img/card2.png","","","","",-60,21,2
"html-keyboard-response",52,135145,"0.0-3.0-0.3-0.3","874.3000000119209","","<div style='float: left; border-style: solid; border-width: 2px; border-color: white; height: 250px; width: 179px;background-image: url(./img/card1.png); height: 250px; width: 179px;')></div><div style='position: fixed; font-size: 18pt; padding: 10px; background-color: white; line-height: 1.5; top: 0; left: 50%; transform: translate(-50%, 0); width: 80%; max-width: 1250px; border-style: solid; border-color: red'>The words """"New Deck"""" will appear each time there is a new deck with a different average payoff. The task automatically moves on after 1 second.  <br><br>For this practice game, press SPACE BAR to continue.</div><div style='position: fixed; bottom: 0;  left: 0%; width:100%; text-align: right'>Draw number: 0 of 5&nbsp<br>Deck number: 4 of 4&nbsp</div><div style='position: fixed; bottom: 50px; left: 0%; width:100%; font-size: 24pt'>Score: 1080</div>","32",1,"NewDeck",4,"","","","","","","","",21,2
"html-keyboard-response",53,135934,"0.0-3.0-0.3-1.3","787.6999999880791","","<div style='float: left; height: 250px; width: 200px;')></div><div style='float: left; border-style: solid; border-width: 2px; border-color: white; height: 250px; width: 179px;background-image: url(./img/card1.png); height: 250px; width: 179px;')></div><div style='float: left; height: 250px; width: 200px;')></div><div style='position: fixed; font-size: 18pt; padding: 10px; background-color: white; line-height: 1.5; top: 0; left: 50%; transform: translate(-50%, 0); width: 80%; max-width: 1250px; border-style: solid; border-color: red'>Press SPACE BAR to draw one card from the deck ...</div><div style='position: fixed; bottom: 0;  left: 0%; width:100%; text-align: right'>Draw number: 0 of 5&nbsp<br>Deck number: 4 of 4&nbsp</div><div style='position: fixed; bottom: 50px; left: 0%; width:100%; font-size: 24pt'>Score: 1080</div>","32",1,"forced_down",4,-100,-1,"","","","","","",21,2
"html-keyboard-response",54,136368,"0.0-3.0-0.3-2.3","433.29999999701977","","<div style='float: left; height: 250px; width: 200px;')></div><div style='float: left;z-index: 1; display: flex; justify-content: center; align-items: center; height: 250px; width: 179px; border-style: solid; border-width: 2px; border-color: white; font-size:60px;'><div style='position: absolute; z-index: -1; background-image: url(./img/card2.png); height: 250px; width: 179px; opacity: 0.9;'></div>-40</div><div style='float: left; height: 250px; width: 200px;')></div><div style='position: fixed; bottom: 0;  left: 0%; width:100%; text-align: right'>Draw number: 1 of 5&nbsp<br>Deck number: 4 of 4&nbsp</div><div style='position: fixed; bottom: 50px; left: 0%; width:100%; font-size: 24pt'>Score: 1080</div><div style='position: fixed; font-size: 18pt; padding: 10px; background-color: white; line-height: 1.5; top: 0; left: 50%; transform: translate(-50%, 0); width: 80%; max-width: 1250px; border-style: solid; border-color: red'>This shows the payout from one draw from the deck.<br>Note that this example draw does not contribute to your score.<br><br>  In the experiment this payout disappears after 1 second. During these practice trials press SPACE BAR to move on.</div>","32",1,"forced_outcome",4,-40,-1,"./img/card1.png","","","","","",21,2
"html-keyboard-response",55,136741,"0.0-3.0-0.3-3.3","371.6000000089407","","<div style='float: left; height: 250px; width: 200px;')></div><div style='float: left; border-style: solid; border-width: 2px; border-color: white; height: 250px; width: 179px;background-image: url(./img/card1.png); height: 250px; width: 179px;')></div><div style='float: left; height: 250px; width: 200px;')></div><div style='position: fixed; font-size: 18pt; padding: 10px; background-color: white; line-height: 1.5; top: 0; left: 50%; transform: translate(-50%, 0); width: 80%; max-width: 1250px; border-style: solid; border-color: red'>Press SPACE BAR to draw one card from the deck ...</div><div style='position: fixed; bottom: 0;  left: 0%; width:100%; text-align: right'>Draw number: 1 of 5&nbsp<br>Deck number: 4 of 4&nbsp</div><div style='position: fixed; bottom: 50px; left: 0%; width:100%; font-size: 24pt'>Score: 1080</div>","32",1,"forced_down",4,-100,-1,"","","","","","",21,2
"html-keyboard-response",56,137115,"0.0-3.0-0.3-4.3","372.40000000596046","","<div style='float: left; height: 250px; width: 200px;')></div><div style='float: left;z-index: 1; display: flex; justify-content: center; align-items: center; height: 250px; width: 179px; border-style: solid; border-width: 2px; border-color: white; font-size:60px;'><div style='position: absolute; z-index: -1; background-image: url(./img/card2.png); height: 250px; width: 179px; opacity: 0.9;'></div>-50</div><div style='float: left; height: 250px; width: 200px;')></div><div style='position: fixed; bottom: 0;  left: 0%; width:100%; text-align: right'>Draw number: 2 of 5&nbsp<br>Deck number: 4 of 4&nbsp</div><div style='position: fixed; bottom: 50px; left: 0%; width:100%; font-size: 24pt'>Score: 1080</div><div style='position: fixed; font-size: 18pt; padding: 10px; background-color: white; line-height: 1.5; top: 0; left: 50%; transform: translate(-50%, 0); width: 80%; max-width: 1250px; border-style: solid; border-color: red'>This shows the payout from one draw from the deck.<br>Note that this example draw does not contribute to your score.<br><br>  In the experiment this payout disappears after 1 second. During these practice trials press SPACE BAR to move on.</div>","32",1,"forced_outcome",4,-50,-1,"./img/card1.png","","","","","",21,2
"html-keyboard-response",57,137545,"0.0-3.0-0.3-5.3","428.30000001192093","","<div style='float: left; height: 250px; width: 200px;')></div><div style='float: left; border-style: solid; border-width: 2px; border-color: white; height: 250px; width: 179px;background-image: url(./img/card1.png); height: 250px; width: 179px;')></div><div style='float: left; height: 250px; width: 200px;')></div><div style='position: fixed; font-size: 18pt; padding: 10px; background-color: white; line-height: 1.5; top: 0; left: 50%; transform: translate(-50%, 0); width: 80%; max-width: 1250px; border-style: solid; border-color: red'>Press SPACE BAR to draw one card from the deck ...</div><div style='position: fixed; bottom: 0;  left: 0%; width:100%; text-align: right'>Draw number: 2 of 5&nbsp<br>Deck number: 4 of 4&nbsp</div><div style='position: fixed; bottom: 50px; left: 0%; width:100%; font-size: 24pt'>Score: 1080</div>","32",1,"forced_down",4,-100,-1,"","","","","","",21,2
"html-keyboard-response",58,139917,"0.0-3.0-0.3-6.3","2370.300000011921","","<div style='float: left; height: 250px; width: 200px;')></div><div style='float: left;z-index: 1; display: flex; justify-content: center; align-items: center; height: 250px; width: 179px; border-style: solid; border-width: 2px; border-color: white; font-size:60px;'><div style='position: absolute; z-index: -1; background-image: url(./img/card2.png); height: 250px; width: 179px; opacity: 0.9;'></div>-50</div><div style='float: left; height: 250px; width: 200px;')></div><div style='position: fixed; bottom: 0;  left: 0%; width:100%; text-align: right'>Draw number: 3 of 5&nbsp<br>Deck number: 4 of 4&nbsp</div><div style='position: fixed; bottom: 50px; left: 0%; width:100%; font-size: 24pt'>Score: 1080</div><div style='position: fixed; font-size: 18pt; padding: 10px; background-color: white; line-height: 1.5; top: 0; left: 50%; transform: translate(-50%, 0); width: 80%; max-width: 1250px; border-style: solid; border-color: red'>This shows the payout from one draw from the deck.<br>Note that this example draw does not contribute to your score.<br><br>  In the experiment this payout disappears after 1 second. During these practice trials press SPACE BAR to move on.</div>","32",1,"forced_outcome",4,-50,-1,"./img/card1.png","","","","","",21,2
"html-keyboard-response",59,140327,"0.0-3.0-0.3-7.3","409.90000000596046","","<div style='float: left; height: 250px; width: 200px;')></div><div style='float: left; border-style: solid; border-width: 2px; border-color: white; height: 250px; width: 179px;background-image: url(./img/card1.png); height: 250px; width: 179px;')></div><div style='float: left; height: 250px; width: 200px;')></div><div style='position: fixed; font-size: 18pt; padding: 10px; background-color: white; line-height: 1.5; top: 0; left: 50%; transform: translate(-50%, 0); width: 80%; max-width: 1250px; border-style: solid; border-color: red'>Press SPACE BAR to draw one card from the deck ...</div><div style='position: fixed; bottom: 0;  left: 0%; width:100%; text-align: right'>Draw number: 3 of 5&nbsp<br>Deck number: 4 of 4&nbsp</div><div style='position: fixed; bottom: 50px; left: 0%; width:100%; font-size: 24pt'>Score: 1080</div>","32",1,"forced_down",4,-100,-1,"","","","","","",21,2
"html-keyboard-response",60,141065,"0.0-3.0-0.3-8.3","736","","<div style='float: left; height: 250px; width: 200px;')></div><div style='float: left;z-index: 1; display: flex; justify-content: center; align-items: center; height: 250px; width: 179px; border-style: solid; border-width: 2px; border-color: white; font-size:60px;'><div style='position: absolute; z-index: -1; background-image: url(./img/card2.png); height: 250px; width: 179px; opacity: 0.9;'></div>-60</div><div style='float: left; height: 250px; width: 200px;')></div><div style='position: fixed; bottom: 0;  left: 0%; width:100%; text-align: right'>Draw number: 4 of 5&nbsp<br>Deck number: 4 of 4&nbsp</div><div style='position: fixed; bottom: 50px; left: 0%; width:100%; font-size: 24pt'>Score: 1080</div><div style='position: fixed; font-size: 18pt; padding: 10px; background-color: white; line-height: 1.5; top: 0; left: 50%; transform: translate(-50%, 0); width: 80%; max-width: 1250px; border-style: solid; border-color: red'>This shows the payout from one draw from the deck.<br>Note that this example draw does not contribute to your score.<br><br>  In the experiment this payout disappears after 1 second. During these practice trials press SPACE BAR to move on.</div>","32",1,"forced_outcome",4,-60,-1,"./img/card1.png","","","","","",21,2
"html-keyboard-response",61,141691,"0.0-3.0-0.3-9.3","624.8999999910593","","<div style='float: left; height: 250px; width: 200px;')></div><div style='float: left; border-style: solid; border-width: 2px; border-color: white; height: 250px; width: 179px;background-image: url(./img/card1.png); height: 250px; width: 179px;')></div><div style='float: left; height: 250px; width: 200px;')></div><div style='position: fixed; font-size: 18pt; padding: 10px; background-color: white; line-height: 1.5; top: 0; left: 50%; transform: translate(-50%, 0); width: 80%; max-width: 1250px; border-style: solid; border-color: red'>Press SPACE BAR to draw one card from the deck ...</div><div style='position: fixed; bottom: 0;  left: 0%; width:100%; text-align: right'>Draw number: 4 of 5&nbsp<br>Deck number: 4 of 4&nbsp</div><div style='position: fixed; bottom: 50px; left: 0%; width:100%; font-size: 24pt'>Score: 1080</div>","32",1,"forced_down",4,-100,-1,"","","","","","",21,2
"html-keyboard-response",62,142301,"0.0-3.0-0.3-10.3","609.0999999940395","","<div style='float: left; height: 250px; width: 200px;')></div><div style='float: left;z-index: 1; display: flex; justify-content: center; align-items: center; height: 250px; width: 179px; border-style: solid; border-width: 2px; border-color: white; font-size:60px;'><div style='position: absolute; z-index: -1; background-image: url(./img/card2.png); height: 250px; width: 179px; opacity: 0.9;'></div>-70</div><div style='float: left; height: 250px; width: 200px;')></div><div style='position: fixed; bottom: 0;  left: 0%; width:100%; text-align: right'>Draw number: 5 of 5&nbsp<br>Deck number: 4 of 4&nbsp</div><div style='position: fixed; bottom: 50px; left: 0%; width:100%; font-size: 24pt'>Score: 1080</div><div style='position: fixed; font-size: 18pt; padding: 10px; background-color: white; line-height: 1.5; top: 0; left: 50%; transform: translate(-50%, 0); width: 80%; max-width: 1250px; border-style: solid; border-color: red'>This shows the payout from one draw from the deck.<br>Note that this example draw does not contribute to your score.<br><br>  In the experiment this payout disappears after 1 second. During these practice trials press SPACE BAR to move on.</div>","32",1,"forced_outcome",4,-70,-1,"./img/card1.png","","","","","",21,2
"html-keyboard-response",63,143570,"0.0-3.0-0.3-11.3","1266.7000000029802","","<div style='float: left; display: flex; justify-content: center; align-items: center; height: 250px; width: 179px; border-style: solid; border-width: 2px; border-color: white; font-size:60px; color:grey; background-color: lightgrey;'')>-40</div><div style='float: left; height: 250px; width: 200px;')></div><div style='float: left; border-style: solid; border-width: 2px; border-color: white; height: 250px; width: 179px;background-image: url(./img/card1.png); height: 250px; width: 179px;')></div><div style='position: fixed; font-size: 18pt; padding: 10px; background-color: white; line-height: 1.5; top: 0; left: 50%; transform: translate(-50%, 0); width: 80%; max-width: 1250px; border-style: solid; border-color: red'>Now you have a choice.  Do you want to draw another card from the deck and get a random payout (which will be similar to the example draws you just made), or do you want a known offer for sure? <br><br>Note that the payout your receive from this choice contributes to your score. <br><br>Press F or J to choose left or right</div><div style='position: fixed; bottom: 0;  left: 0%; width:100%; text-align: right'>Choice&nbsp<br>Deck number: 4 of 4&nbsp</div><div style='position: fixed; bottom: 50px; left: 0%; width:100%; font-size: 24pt'>Score: 1080</div>","70",1,"choice_down",4,-1,0,"./img/card1.png",-1,-1,FALSE,-40,"",21,2
"html-keyboard-response",64,144690,"0.0-3.0-0.3-12.3","1119.2000000029802","","<div style='float: left; display: flex; justify-content: center; align-items: center; height: 250px; width: 179px; border-style: solid; border-width: 2px; border-color: black; font-size:60px;'')>-40</div><div style='float: left; height: 250px; width: 200px;')></div><div style='float: left; border-style: solid; border-width: 2px; border-color: white; height: 250px; width: 179px;background-image: url(./img/card1.png); height: 250px; width: 179px;')></div><div style='position: fixed; font-size: 18pt; padding: 10px; background-color: white; line-height: 1.5; top: 0; left: 50%; transform: translate(-50%, 0); width: 80%; max-width: 1250px; border-style: solid; border-color: red'>You chose the known outcome and earned -40 points. In the experiment this outcome will show for 1 second.  In this practice game please press SPACE BAR to continue.</div><div style='position: fixed; bottom: 0;  left: 0%; width:100%; text-align: right'>Choice&nbsp<br>Deck number: 4 of 4&nbsp</div><div style='position: fixed; bottom: 50px; left: 0%; width:100%; font-size: 24pt'>Score: 1040</div>","32",1,"choice_outcome",4,-1,0,"./img/card1.png","","","","",-40,21,2
"html-keyboard-response",65,149772,"0.0-4.0","5080.79999999702","","<div style='position: fixed; font-size: 18pt; padding: 10px; background-color: white; line-height: 1.5; top: 0; left: 50%; transform: translate(-50%, 0); width: 80%; max-width: 1250px; border-style: solid; border-color: red'>Hopefully that all makes sense.  <br><br>You press SPACE BAR to draw from the deck 5 times and then F or J to make your choice.  Try to earn the most points you can!  <br><br>Press SPACE BAR to start the game.</div>","32","","","","","","","","","","","",21,2
"html-keyboard-response",66,150777,"0.0-5.0-0.0-0.0","null","","<div style='position: fixed; font-size:60px; top: 10%; left: 50%; transform: translate(-50%, 0); width: 80%; max-width: 800px; '>New Deck</div><div style='float: left; border-style: solid; border-width: 2px; border-color: white; height: 250px; width: 179px;background-image: url(./img/card1.png); height: 250px; width: 179px;')></div><div style='position: fixed; bottom: 0;  left: 0%; width:100%; text-align: right'>Draw number: 0 of 5&nbsp<br>Deck number: 1 of 100&nbsp</div><div style='position: fixed; bottom: 50px; left: 0%; width:100%; font-size: 24pt'>Score: 1000</div>","null",1,"NewDeck",1,"","","","","","","","",21,2
"html-keyboard-response",67,151263,"0.0-5.0-0.0-1.0","484.70000000298023","","<div style='float: left; height: 250px; width: 200px;')></div><div style='float: left; border-style: solid; border-width: 2px; border-color: white; height: 250px; width: 179px;background-image: url(./img/card1.png); height: 250px; width: 179px;')></div><div style='float: left; height: 250px; width: 200px;')></div><div style='position: fixed; font-size: 18pt; padding: 10px; background-color: white; line-height: 1.5; top: 0; left: 50%; transform: translate(-50%, 0); width: 80%; max-width: 1250px; border-style: solid; border-color: white'>Press SPACE BAR to draw one card.</div><div style='position: fixed; bottom: 0;  left: 0%; width:100%; text-align: right'>Draw number: 0 of 5&nbsp<br>Deck number: 1 of 100&nbsp</div><div style='position: fixed; bottom: 50px; left: 0%; width:100%; font-size: 24pt'>Score: 1000</div>","32",1,"forced_down",1,-100,-1,"","","","","","",21,2
"html-keyboard-response",68,152266,"0.0-5.0-0.0-2.0","null","","<div style='float: left; height: 250px; width: 200px;')></div><div style='float: left;z-index: 1; display: flex; justify-content: center; align-items: center; height: 250px; width: 179px; border-style: solid; border-width: 2px; border-color: white; font-size:60px;'><div style='position: absolute; z-index: -1; background-image: url(./img/card2.png); height: 250px; width: 179px; opacity: 0.9;'></div>-1050</div><div style='float: left; height: 250px; width: 200px;')></div><div style='position: fixed; bottom: 0;  left: 0%; width:100%; text-align: right'>Draw number: 1 of 5&nbsp<br>Deck number: 1 of 100&nbsp</div><div style='position: fixed; bottom: 50px; left: 0%; width:100%; font-size: 24pt'>Score: 1000</div>","null",1,"forced_outcome",1,-1050,-1,"./img/card1.png","","","","","",21,2
"html-keyboard-response",69,152944,"0.0-5.0-0.0-3.0","676.5999999940395","","<div style='float: left; height: 250px; width: 200px;')></div><div style='float: left; border-style: solid; border-width: 2px; border-color: white; height: 250px; width: 179px;background-image: url(./img/card1.png); height: 250px; width: 179px;')></div><div style='float: left; height: 250px; width: 200px;')></div><div style='position: fixed; font-size: 18pt; padding: 10px; background-color: white; line-height: 1.5; top: 0; left: 50%; transform: translate(-50%, 0); width: 80%; max-width: 1250px; border-style: solid; border-color: white'>Press SPACE BAR to draw one card.</div><div style='position: fixed; bottom: 0;  left: 0%; width:100%; text-align: right'>Draw number: 1 of 5&nbsp<br>Deck number: 1 of 100&nbsp</div><div style='position: fixed; bottom: 50px; left: 0%; width:100%; font-size: 24pt'>Score: 1000</div>","32",1,"forced_down",1,-100,-1,"","","","","","",21,2
"html-keyboard-response",70,153950,"0.0-5.0-0.0-4.0","null","","<div style='float: left; height: 250px; width: 200px;')></div><div style='float: left;z-index: 1; display: flex; justify-content: center; align-items: center; height: 250px; width: 179px; border-style: solid; border-width: 2px; border-color: white; font-size:60px;'><div style='position: absolute; z-index: -1; background-image: url(./img/card2.png); height: 250px; width: 179px; opacity: 0.9;'></div>-50</div><div style='float: left; height: 250px; width: 200px;')></div><div style='position: fixed; bottom: 0;  left: 0%; width:100%; text-align: right'>Draw number: 2 of 5&nbsp<br>Deck number: 1 of 100&nbsp</div><div style='position: fixed; bottom: 50px; left: 0%; width:100%; font-size: 24pt'>Score: 1000</div>","null",1,"forced_outcome",1,-50,-1,"./img/card1.png","","","","","",21,2
"html-keyboard-response",71,154436,"0.0-5.0-0.0-5.0","484","","<div style='float: left; height: 250px; width: 200px;')></div><div style='float: left; border-style: solid; border-width: 2px; border-color: white; height: 250px; width: 179px;background-image: url(./img/card1.png); height: 250px; width: 179px;')></div><div style='float: left; height: 250px; width: 200px;')></div><div style='position: fixed; font-size: 18pt; padding: 10px; background-color: white; line-height: 1.5; top: 0; left: 50%; transform: translate(-50%, 0); width: 80%; max-width: 1250px; border-style: solid; border-color: white'>Press SPACE BAR to draw one card.</div><div style='position: fixed; bottom: 0;  left: 0%; width:100%; text-align: right'>Draw number: 2 of 5&nbsp<br>Deck number: 1 of 100&nbsp</div><div style='position: fixed; bottom: 50px; left: 0%; width:100%; font-size: 24pt'>Score: 1000</div>","32",1,"forced_down",1,-100,-1,"","","","","","",21,2
"html-keyboard-response",72,155441,"0.0-5.0-0.0-6.0","null","","<div style='float: left; height: 250px; width: 200px;')></div><div style='float: left;z-index: 1; display: flex; justify-content: center; align-items: center; height: 250px; width: 179px; border-style: solid; border-width: 2px; border-color: white; font-size:60px;'><div style='position: absolute; z-index: -1; background-image: url(./img/card2.png); height: 250px; width: 179px; opacity: 0.9;'></div>-50</div><div style='float: left; height: 250px; width: 200px;')></div><div style='position: fixed; bottom: 0;  left: 0%; width:100%; text-align: right'>Draw number: 3 of 5&nbsp<br>Deck number: 1 of 100&nbsp</div><div style='position: fixed; bottom: 50px; left: 0%; width:100%; font-size: 24pt'>Score: 1000</div>","null",1,"forced_outcome",1,-50,-1,"./img/card1.png","","","","","",21,2
"html-keyboard-response",73,155795,"0.0-5.0-0.0-7.0","353.40000000596046","","<div style='float: left; height: 250px; width: 200px;')></div><div style='float: left; border-style: solid; border-width: 2px; border-color: white; height: 250px; width: 179px;background-image: url(./img/card1.png); height: 250px; width: 179px;')></div><div style='float: left; height: 250px; width: 200px;')></div><div style='position: fixed; font-size: 18pt; padding: 10px; background-color: white; line-height: 1.5; top: 0; left: 50%; transform: translate(-50%, 0); width: 80%; max-width: 1250px; border-style: solid; border-color: white'>Press SPACE BAR to draw one card.</div><div style='position: fixed; bottom: 0;  left: 0%; width:100%; text-align: right'>Draw number: 3 of 5&nbsp<br>Deck number: 1 of 100&nbsp</div><div style='position: fixed; bottom: 50px; left: 0%; width:100%; font-size: 24pt'>Score: 1000</div>","32",1,"forced_down",1,-100,-1,"","","","","","",21,2
"html-keyboard-response",74,156798,"0.0-5.0-0.0-8.0","null","","<div style='float: left; height: 250px; width: 200px;')></div><div style='float: left;z-index: 1; display: flex; justify-content: center; align-items: center; height: 250px; width: 179px; border-style: solid; border-width: 2px; border-color: white; font-size:60px;'><div style='position: absolute; z-index: -1; background-image: url(./img/card2.png); height: 250px; width: 179px; opacity: 0.9;'></div>-70</div><div style='float: left; height: 250px; width: 200px;')></div><div style='position: fixed; bottom: 0;  left: 0%; width:100%; text-align: right'>Draw number: 4 of 5&nbsp<br>Deck number: 1 of 100&nbsp</div><div style='position: fixed; bottom: 50px; left: 0%; width:100%; font-size: 24pt'>Score: 1000</div>","null",1,"forced_outcome",1,-70,-1,"./img/card1.png","","","","","",21,2
"html-keyboard-response",75,157189,"0.0-5.0-0.0-9.0","389.09999999403954","","<div style='float: left; height: 250px; width: 200px;')></div><div style='float: left; border-style: solid; border-width: 2px; border-color: white; height: 250px; width: 179px;background-image: url(./img/card1.png); height: 250px; width: 179px;')></div><div style='float: left; height: 250px; width: 200px;')></div><div style='position: fixed; font-size: 18pt; padding: 10px; background-color: white; line-height: 1.5; top: 0; left: 50%; transform: translate(-50%, 0); width: 80%; max-width: 1250px; border-style: solid; border-color: white'>Press SPACE BAR to draw one card.</div><div style='position: fixed; bottom: 0;  left: 0%; width:100%; text-align: right'>Draw number: 4 of 5&nbsp<br>Deck number: 1 of 100&nbsp</div><div style='position: fixed; bottom: 50px; left: 0%; width:100%; font-size: 24pt'>Score: 1000</div>","32",1,"forced_down",1,-100,-1,"","","","","","",21,2
"html-keyboard-response",76,158194,"0.0-5.0-0.0-10.0","null","","<div style='float: left; height: 250px; width: 200px;')></div><div style='float: left;z-index: 1; display: flex; justify-content: center; align-items: center; height: 250px; width: 179px; border-style: solid; border-width: 2px; border-color: white; font-size:60px;'><div style='position: absolute; z-index: -1; background-image: url(./img/card2.png); height: 250px; width: 179px; opacity: 0.9;'></div>-80</div><div style='float: left; height: 250px; width: 200px;')></div><div style='position: fixed; bottom: 0;  left: 0%; width:100%; text-align: right'>Draw number: 5 of 5&nbsp<br>Deck number: 1 of 100&nbsp</div><div style='position: fixed; bottom: 50px; left: 0%; width:100%; font-size: 24pt'>Score: 1000</div>","null",1,"forced_outcome",1,-80,-1,"./img/card1.png","","","","","",21,2
"html-keyboard-response",77,159743,"0.0-5.0-0.0-11.0","1547.2999999970198","","<div style='float: left; display: flex; justify-content: center; align-items: center; height: 250px; width: 179px; border-style: solid; border-width: 2px; border-color: white; font-size:60px; color:grey; background-color: lightgrey;'')>-90</div><div style='float: left; height: 250px; width: 200px;')></div><div style='float: left; border-style: solid; border-width: 2px; border-color: white; height: 250px; width: 179px;background-image: url(./img/card1.png); height: 250px; width: 179px;')></div><div style='position: fixed; font-size: 18pt; padding: 10px; background-color: white; line-height: 1.5; top: 0; left: 50%; transform: translate(-50%, 0); width: 80%; max-width: 1250px; border-style: solid; border-color: white'>Do you want another draw from the deck or -90 points for sure?<br><br>Press F to choose left, J to choose right</div><div style='position: fixed; bottom: 0;  left: 0%; width:100%; text-align: right'>Choice&nbsp<br>Deck number: 1 of 100&nbsp</div><div style='position: fixed; bottom: 50px; left: 0%; width:100%; font-size: 24pt'>Score: 1000</div>","70",1,"choice_down",1,-1,0,"./img/card1.png",-1,-1,FALSE,-90,"",21,2
"html-keyboard-response",78,160750,"0.0-5.0-0.0-12.0","null","","<div style='float: left; display: flex; justify-content: center; align-items: center; height: 250px; width: 179px; border-style: solid; border-width: 2px; border-color: black; font-size:60px;'')>-90</div><div style='float: left; height: 250px; width: 200px;')></div><div style='float: left; border-style: solid; border-width: 2px; border-color: white; height: 250px; width: 179px;background-image: url(./img/card1.png); height: 250px; width: 179px;')></div><div style='position: fixed; bottom: 0;  left: 0%; width:100%; text-align: right'>Choice&nbsp<br>Deck number: 1 of 100&nbsp</div><div style='position: fixed; bottom: 50px; left: 0%; width:100%; font-size: 24pt'>Score: 910</div>","null",1,"choice_outcome",1,-1,0,"./img/card1.png","","","","",-90,21,2
"html-keyboard-response",79,161754,"0.0-5.0-0.1-0.1","null","","<div style='position: fixed; font-size:60px; top: 10%; left: 50%; transform: translate(-50%, 0); width: 80%; max-width: 800px; '>New Deck</div><div style='float: left; border-style: solid; border-width: 2px; border-color: white; height: 250px; width: 179px;background-image: url(./img/card1.png); height: 250px; width: 179px;')></div><div style='position: fixed; bottom: 0;  left: 0%; width:100%; text-align: right'>Draw number: 0 of 5&nbsp<br>Deck number: 2 of 100&nbsp</div><div style='position: fixed; bottom: 50px; left: 0%; width:100%; font-size: 24pt'>Score: 910</div>","null",1,"NewDeck",2,"","","","","","","","",21,2
"html-keyboard-response",80,161759,"0.0-5.0-0.1-1.1","4.5","","<div style='float: left; height: 250px; width: 200px;')></div><div style='float: left; border-style: solid; border-width: 2px; border-color: white; height: 250px; width: 179px;background-image: url(./img/card1.png); height: 250px; width: 179px;')></div><div style='float: left; height: 250px; width: 200px;')></div><div style='position: fixed; font-size: 18pt; padding: 10px; background-color: white; line-height: 1.5; top: 0; left: 50%; transform: translate(-50%, 0); width: 80%; max-width: 1250px; border-style: solid; border-color: white'>Press SPACE BAR to draw one card.</div><div style='position: fixed; bottom: 0;  left: 0%; width:100%; text-align: right'>Draw number: 0 of 5&nbsp<br>Deck number: 2 of 100&nbsp</div><div style='position: fixed; bottom: 50px; left: 0%; width:100%; font-size: 24pt'>Score: 910</div>","32",1,"forced_down",2,-100,-1,"","","","","","",21,2
"html-keyboard-response",81,162762,"0.0-5.0-0.1-2.1","null","","<div style='float: left; height: 250px; width: 200px;')></div><div style='float: left;z-index: 1; display: flex; justify-content: center; align-items: center; height: 250px; width: 179px; border-style: solid; border-width: 2px; border-color: white; font-size:60px;'><div style='position: absolute; z-index: -1; background-image: url(./img/card2.png); height: 250px; width: 179px; opacity: 0.9;'></div>-240</div><div style='float: left; height: 250px; width: 200px;')></div><div style='position: fixed; bottom: 0;  left: 0%; width:100%; text-align: right'>Draw number: 1 of 5&nbsp<br>Deck number: 2 of 100&nbsp</div><div style='position: fixed; bottom: 50px; left: 0%; width:100%; font-size: 24pt'>Score: 910</div>","null",1,"forced_outcome",2,-240,-1,"./img/card1.png","","","","","",21,2
"html-keyboard-response",82,163026,"0.0-5.0-0.1-3.1","262.20000000298023","","<div style='float: left; height: 250px; width: 200px;')></div><div style='float: left; border-style: solid; border-width: 2px; border-color: white; height: 250px; width: 179px;background-image: url(./img/card1.png); height: 250px; width: 179px;')></div><div style='float: left; height: 250px; width: 200px;')></div><div style='position: fixed; font-size: 18pt; padding: 10px; background-color: white; line-height: 1.5; top: 0; left: 50%; transform: translate(-50%, 0); width: 80%; max-width: 1250px; border-style: solid; border-color: white'>Press SPACE BAR to draw one card.</div><div style='position: fixed; bottom: 0;  left: 0%; width:100%; text-align: right'>Draw number: 1 of 5&nbsp<br>Deck number: 2 of 100&nbsp</div><div style='position: fixed; bottom: 50px; left: 0%; width:100%; font-size: 24pt'>Score: 910</div>","32",1,"forced_down",2,-100,-1,"","","","","","",21,2
"html-keyboard-response",83,164032,"0.0-5.0-0.1-4.1","null","","<div style='float: left; height: 250px; width: 200px;')></div><div style='float: left;z-index: 1; display: flex; justify-content: center; align-items: center; height: 250px; width: 179px; border-style: solid; border-width: 2px; border-color: white; font-size:60px;'><div style='position: absolute; z-index: -1; background-image: url(./img/card2.png); height: 250px; width: 179px; opacity: 0.9;'></div>-230</div><div style='float: left; height: 250px; width: 200px;')></div><div style='position: fixed; bottom: 0;  left: 0%; width:100%; text-align: right'>Draw number: 2 of 5&nbsp<br>Deck number: 2 of 100&nbsp</div><div style='position: fixed; bottom: 50px; left: 0%; width:100%; font-size: 24pt'>Score: 910</div>","null",1,"forced_outcome",2,-230,-1,"./img/card1.png","","","","","",21,2
"html-keyboard-response",84,164318,"0.0-5.0-0.1-5.1","284.29999999701977","","<div style='float: left; height: 250px; width: 200px;')></div><div style='float: left; border-style: solid; border-width: 2px; border-color: white; height: 250px; width: 179px;background-image: url(./img/card1.png); height: 250px; width: 179px;')></div><div style='float: left; height: 250px; width: 200px;')></div><div style='position: fixed; font-size: 18pt; padding: 10px; background-color: white; line-height: 1.5; top: 0; left: 50%; transform: translate(-50%, 0); width: 80%; max-width: 1250px; border-style: solid; border-color: white'>Press SPACE BAR to draw one card.</div><div style='position: fixed; bottom: 0;  left: 0%; width:100%; text-align: right'>Draw number: 2 of 5&nbsp<br>Deck number: 2 of 100&nbsp</div><div style='position: fixed; bottom: 50px; left: 0%; width:100%; font-size: 24pt'>Score: 910</div>","32",1,"forced_down",2,-100,-1,"","","","","","",21,2
"html-keyboard-response",85,165322,"0.0-5.0-0.1-6.1","null","","<div style='float: left; height: 250px; width: 200px;')></div><div style='float: left;z-index: 1; display: flex; justify-content: center; align-items: center; height: 250px; width: 179px; border-style: solid; border-width: 2px; border-color: white; font-size:60px;'><div style='position: absolute; z-index: -1; background-image: url(./img/card2.png); height: 250px; width: 179px; opacity: 0.9;'></div>-250</div><div style='float: left; height: 250px; width: 200px;')></div><div style='position: fixed; bottom: 0;  left: 0%; width:100%; text-align: right'>Draw number: 3 of 5&nbsp<br>Deck number: 2 of 100&nbsp</div><div style='position: fixed; bottom: 50px; left: 0%; width:100%; font-size: 24pt'>Score: 910</div>","null",1,"forced_outcome",2,-250,-1,"./img/card1.png","","","","","",21,2
"html-keyboard-response",86,165491,"0.0-5.0-0.1-7.1","167.79999999701977","","<div style='float: left; height: 250px; width: 200px;')></div><div style='float: left; border-style: solid; border-width: 2px; border-color: white; height: 250px; width: 179px;background-image: url(./img/card1.png); height: 250px; width: 179px;')></div><div style='float: left; height: 250px; width: 200px;')></div><div style='position: fixed; font-size: 18pt; padding: 10px; background-color: white; line-height: 1.5; top: 0; left: 50%; transform: translate(-50%, 0); width: 80%; max-width: 1250px; border-style: solid; border-color: white'>Press SPACE BAR to draw one card.</div><div style='position: fixed; bottom: 0;  left: 0%; width:100%; text-align: right'>Draw number: 3 of 5&nbsp<br>Deck number: 2 of 100&nbsp</div><div style='position: fixed; bottom: 50px; left: 0%; width:100%; font-size: 24pt'>Score: 910</div>","32",1,"forced_down",2,-100,-1,"","","","","","",21,2
"html-keyboard-response",87,166493,"0.0-5.0-0.1-8.1","null","","<div style='float: left; height: 250px; width: 200px;')></div><div style='float: left;z-index: 1; display: flex; justify-content: center; align-items: center; height: 250px; width: 179px; border-style: solid; border-width: 2px; border-color: white; font-size:60px;'><div style='position: absolute; z-index: -1; background-image: url(./img/card2.png); height: 250px; width: 179px; opacity: 0.9;'></div>-250</div><div style='float: left; height: 250px; width: 200px;')></div><div style='position: fixed; bottom: 0;  left: 0%; width:100%; text-align: right'>Draw number: 4 of 5&nbsp<br>Deck number: 2 of 100&nbsp</div><div style='position: fixed; bottom: 50px; left: 0%; width:100%; font-size: 24pt'>Score: 910</div>","null",1,"forced_outcome",2,-250,-1,"./img/card1.png","","","","","",21,2
"html-keyboard-response",88,166892,"0.0-5.0-0.1-9.1","397.79999999701977","","<div style='float: left; height: 250px; width: 200px;')></div><div style='float: left; border-style: solid; border-width: 2px; border-color: white; height: 250px; width: 179px;background-image: url(./img/card1.png); height: 250px; width: 179px;')></div><div style='float: left; height: 250px; width: 200px;')></div><div style='position: fixed; font-size: 18pt; padding: 10px; background-color: white; line-height: 1.5; top: 0; left: 50%; transform: translate(-50%, 0); width: 80%; max-width: 1250px; border-style: solid; border-color: white'>Press SPACE BAR to draw one card.</div><div style='position: fixed; bottom: 0;  left: 0%; width:100%; text-align: right'>Draw number: 4 of 5&nbsp<br>Deck number: 2 of 100&nbsp</div><div style='position: fixed; bottom: 50px; left: 0%; width:100%; font-size: 24pt'>Score: 910</div>","32",1,"forced_down",2,-100,-1,"","","","","","",21,2
"html-keyboard-response",89,167898,"0.0-5.0-0.1-10.1","null","","<div style='float: left; height: 250px; width: 200px;')></div><div style='float: left;z-index: 1; display: flex; justify-content: center; align-items: center; height: 250px; width: 179px; border-style: solid; border-width: 2px; border-color: white; font-size:60px;'><div style='position: absolute; z-index: -1; background-image: url(./img/card2.png); height: 250px; width: 179px; opacity: 0.9;'></div>-230</div><div style='float: left; height: 250px; width: 200px;')></div><div style='position: fixed; bottom: 0;  left: 0%; width:100%; text-align: right'>Draw number: 5 of 5&nbsp<br>Deck number: 2 of 100&nbsp</div><div style='position: fixed; bottom: 50px; left: 0%; width:100%; font-size: 24pt'>Score: 910</div>","null",1,"forced_outcome",2,-230,-1,"./img/card1.png","","","","","",21,2
"html-keyboard-response",90,169116,"0.0-5.0-0.1-11.1","1216.5","","<div style='float: left; border-style: solid; border-width: 2px; border-color: white; height: 250px; width: 179px;background-image: url(./img/card1.png); height: 250px; width: 179px;')></div><div style='float: left; height: 250px; width: 200px;')></div><div style='float: left; display: flex; justify-content: center; align-items: center; height: 250px; width: 179px; border-style: solid; border-width: 2px; border-color: white; font-size:60px; color:grey; background-color: lightgrey;'')>-140</div><div style='position: fixed; font-size: 18pt; padding: 10px; background-color: white; line-height: 1.5; top: 0; left: 50%; transform: translate(-50%, 0); width: 80%; max-width: 1250px; border-style: solid; border-color: white'>Do you want another draw from the deck or -140 points for sure?<br><br>Press F to choose left, J to choose right</div><div style='position: fixed; bottom: 0;  left: 0%; width:100%; text-align: right'>Choice&nbsp<br>Deck number: 2 of 100&nbsp</div><div style='position: fixed; bottom: 50px; left: 0%; width:100%; font-size: 24pt'>Score: 910</div>","74",1,"choice_down",2,-1,1,"./img/card1.png",-1,-1,FALSE,-140,"",21,2
"html-keyboard-response",91,170118,"0.0-5.0-0.1-12.1","null","","<div style='float: left; border-style: solid; border-width: 2px; border-color: white; height: 250px; width: 179px;background-image: url(./img/card1.png); height: 250px; width: 179px;')></div><div style='float: left; height: 250px; width: 200px;')></div><div style='float: left; display: flex; justify-content: center; align-items: center; height: 250px; width: 179px; border-style: solid; border-width: 2px; border-color: black; font-size:60px;'')>-140</div><div style='position: fixed; bottom: 0;  left: 0%; width:100%; text-align: right'>Choice&nbsp<br>Deck number: 2 of 100&nbsp</div><div style='position: fixed; bottom: 50px; left: 0%; width:100%; font-size: 24pt'>Score: 770</div>","null",1,"choice_outcome",2,-1,1,"./img/card1.png","","","","",-140,21,2
"html-keyboard-response",92,171125,"0.0-5.0-0.2-0.2","null","","<div style='position: fixed; font-size:60px; top: 10%; left: 50%; transform: translate(-50%, 0); width: 80%; max-width: 800px; '>New Deck</div><div style='float: left; border-style: solid; border-width: 2px; border-color: white; height: 250px; width: 179px;background-image: url(./img/card1.png); height: 250px; width: 179px;')></div><div style='position: fixed; bottom: 0;  left: 0%; width:100%; text-align: right'>Draw number: 0 of 5&nbsp<br>Deck number: 3 of 100&nbsp</div><div style='position: fixed; bottom: 50px; left: 0%; width:100%; font-size: 24pt'>Score: 770</div>","null",1,"NewDeck",3,"","","","","","","","",21,2
"html-keyboard-response",93,171437,"0.0-5.0-0.2-1.2","310.20000000298023","","<div style='float: left; height: 250px; width: 200px;')></div><div style='float: left; border-style: solid; border-width: 2px; border-color: white; height: 250px; width: 179px;background-image: url(./img/card1.png); height: 250px; width: 179px;')></div><div style='float: left; height: 250px; width: 200px;')></div><div style='position: fixed; font-size: 18pt; padding: 10px; background-color: white; line-height: 1.5; top: 0; left: 50%; transform: translate(-50%, 0); width: 80%; max-width: 1250px; border-style: solid; border-color: white'>Press SPACE BAR to draw one card.</div><div style='position: fixed; bottom: 0;  left: 0%; width:100%; text-align: right'>Draw number: 0 of 5&nbsp<br>Deck number: 3 of 100&nbsp</div><div style='position: fixed; bottom: 50px; left: 0%; width:100%; font-size: 24pt'>Score: 770</div>","32",1,"forced_down",3,-100,-1,"","","","","","",21,2
"html-keyboard-response",94,172442,"0.0-5.0-0.2-2.2","null","","<div style='float: left; height: 250px; width: 200px;')></div><div style='float: left;z-index: 1; display: flex; justify-content: center; align-items: center; height: 250px; width: 179px; border-style: solid; border-style: solid; border-width: 2px; border-color: white; font-size:60px;'><div style='position: absolute; z-index: -1; background-image: url(./img/card2.png); height: 250px; width: 179px; opacity: 0.9;'></div>+40</div><div style='float: left; height: 250px; width: 200px;')></div><div style='position: fixed; bottom: 0;  left: 0%; width:100%; text-align: right'>Draw number: 1 of 5&nbsp<br>Deck number: 3 of 100&nbsp</div><div style='position: fixed; bottom: 50px; left: 0%; width:100%; font-size: 24pt'>Score: 770</div>","null",1,"forced_outcome",3,40,-1,"./img/card1.png","","","","","",21,2
"html-keyboard-response",95,172747,"0.0-5.0-0.2-3.2","304.5","","<div style='float: left; height: 250px; width: 200px;')></div><div style='float: left; border-style: solid; border-width: 2px; border-color: white; height: 250px; width: 179px;background-image: url(./img/card1.png); height: 250px; width: 179px;')></div><div style='float: left; height: 250px; width: 200px;')></div><div style='position: fixed; font-size: 18pt; padding: 10px; background-color: white; line-height: 1.5; top: 0; left: 50%; transform: translate(-50%, 0); width: 80%; max-width: 1250px; border-style: solid; border-color: white'>Press SPACE BAR to draw one card.</div><div style='position: fixed; bottom: 0;  left: 0%; width:100%; text-align: right'>Draw number: 1 of 5&nbsp<br>Deck number: 3 of 100&nbsp</div><div style='position: fixed; bottom: 50px; left: 0%; width:100%; font-size: 24pt'>Score: 770</div>","32",1,"forced_down",3,-100,-1,"","","","","","",21,2
"html-keyboard-response",96,173750,"0.0-5.0-0.2-4.2","null","","<div style='float: left; height: 250px; width: 200px;')></div><div style='float: left;z-index: 1; display: flex; justify-content: center; align-items: center; height: 250px; width: 179px; border-style: solid; border-style: solid; border-width: 2px; border-color: white; font-size:60px;'><div style='position: absolute; z-index: -1; background-image: url(./img/card2.png); height: 250px; width: 179px; opacity: 0.9;'></div>+50</div><div style='float: left; height: 250px; width: 200px;')></div><div style='position: fixed; bottom: 0;  left: 0%; width:100%; text-align: right'>Draw number: 2 of 5&nbsp<br>Deck number: 3 of 100&nbsp</div><div style='position: fixed; bottom: 50px; left: 0%; width:100%; font-size: 24pt'>Score: 770</div>","null",1,"forced_outcome",3,50,-1,"./img/card1.png","","","","","",21,2
"html-keyboard-response",97,174149,"0.0-5.0-0.2-5.2","397.70000000298023","","<div style='float: left; height: 250px; width: 200px;')></div><div style='float: left; border-style: solid; border-width: 2px; border-color: white; height: 250px; width: 179px;background-image: url(./img/card1.png); height: 250px; width: 179px;')></div><div style='float: left; height: 250px; width: 200px;')></div><div style='position: fixed; font-size: 18pt; padding: 10px; background-color: white; line-height: 1.5; top: 0; left: 50%; transform: translate(-50%, 0); width: 80%; max-width: 1250px; border-style: solid; border-color: white'>Press SPACE BAR to draw one card.</div><div style='position: fixed; bottom: 0;  left: 0%; width:100%; text-align: right'>Draw number: 2 of 5&nbsp<br>Deck number: 3 of 100&nbsp</div><div style='position: fixed; bottom: 50px; left: 0%; width:100%; font-size: 24pt'>Score: 770</div>","32",1,"forced_down",3,-100,-1,"","","","","","",21,2
